ax; ay; az; gx; gy; gz; magx; magy; magz; magN; th; tm; ts; lati; loni; lat; lon
-13293457; 1342773; -97546386; -6103515; -36621093; -12207031; 3800000000; -800000000; 800000000; 10188865661;2300000000; 3200000000; 5000000000; 5009099390; 2000077120; 50.090553999271286; 20.001243060711445
-13342285; 1379394; -97570800; -6103515; -42724609; -12207031; 3800000000; -800000000; 800000000; 10188865661;2300000000; 3200000000; 5000000000; 5009099390; 2000077120; 50.090553999271286; 20.001243060711445
-13256835; 1391601; -97570800; 0; -36621093; -12207031; 3800000000; -900000000; 800000000; 10159217071;2300000000; 3200000000; 5000000000; 5009099390; 2000077120; 50.090553999271286; 20.001243060711445
-13354492; 1403808; -97583007; -12207031; -30517578; -12207031; 3800000000; -800000000; 800000000; 10188865661;2300000000; 3200000000; 5000000000; 5009099390; 2000077120; 50.090553999271286; 20.001243060711445
-13342285; 1306152; -97607421; 0; -42724609; -12207031; 3800000000; -900000000; 800000000; 10332453918;2300000000; 3200000000; 5000000000; 5009099390; 2000077120; 50.090553999271286; 20.001243060711445
-13220214; 1342773; -97607421; -18310546; -30517578; -6103515; 3800000000; -900000000; 800000000; 10332453918;2300000000; 3200000000; 5000000000; 5009099390; 2000077120; 50.090553999271286; 20.001243060711445
-13281250; 1318359; -97644042; -6103515; -30517578; -12207031; 3900000000; -800000000; 800000000; 10159217071;2300000000; 3200000000; 5000000000; 5009099390; 2000077120; 50.090553999271286; 20.001243060711445
-13330078; 1306152; -97607421; 0; -42724609; -12207031; 3800000000; -800000000; 900000000; 10188865661;2300000000; 3200000000; 5000000000; 5009099390; 2000077120; 50.090553999271286; 20.001243060711445
-13330078; 1306152; -97570800; -18310546; -30517578; -12207031; 3900000000; -800000000; 800000000; 10332453918;2300000000; 3200000000; 5000000000; 5009099390; 2000077120; 50.090553999271286; 20.001243060711445
-13195800; 1306152; -97607421; -6103515; -36621093; -12207031; 3800000000; -800000000; 800000000; 10188865661;2300000000; 3200000000; 5000000000; 5009099390; 2000077120; 50.090553999271286; 20.001243060711445
-13330078; 1281738; -97619628; -12207031; -30517578; -12207031; 3800000000; -800000000; 800000000; 10188865661;2300000000; 3200000000; 5000000000; 5009099390; 2000077120; 50.090553999271286; 20.001243060711445
-13342285; 1342773; -97619628; -12207031; -30517578; -12207031; 3800000000; -900000000; 900000000; 10332453918;2300000000; 3200000000; 5000000000; 5009099390; 2000077120; 50.090553999271286; 20.001243060711445
-13256835; 1306152; -97631835; -18310546; -30517578; -12207031; 3800000000; -800000000; 800000000; 10188865661;2300000000; 3200000000; 5000000000; 5009099390; 2000077120; 50.090553999271286; 20.001243060711445
-13293457; 1306152; -97607421; -6103515; -42724609; -12207031; 3800000000; -900000000; 800000000; 10332453918;2300000000; 3200000000; 5000000000; 5009099390; 2000077120; 50.090553999271286; 20.001243060711445
-13256835; 1354980; -97583007; -6103515; -36621093; -12207031; 3800000000; -900000000; 900000000; 10332453918;2300000000; 3200000000; 5000000000; 5009099390; 2000077120; 50.090553999271286; 20.001243060711445
-13293457; 1318359; -97644042; 0; -42724609; -12207031; 3800000000; -900000000; 800000000; 10332453918;2300000000; 3200000000; 5000000000; 5009099390; 2000077120; 50.090553999271286; 20.001243060711445
-13281250; 1318359; -97570800; -6103515; -36621093; -12207031; 3900000000; -800000000; 800000000; 10159217071;2300000000; 3200000000; 5000000000; 5009099390; 2000077120; 50.090553999271286; 20.001243060711445
-13281250; 1293945; -97607421; -12207031; -36621093; -12207031; 3800000000; -900000000; 900000000; 10332453918;2300000000; 3200000000; 5000000000; 5009099390; 2000077120; 50.090553999271286; 20.001243060711445
-13269042; 1330566; -97607421; -12207031; -30517578; -12207031; 3800000000; -900000000; 800000000; 10332453918;2300000000; 3200000000; 5000000000; 5009099390; 2000077120; 50.090553999271286; 20.001243060711445
-13293457; 1281738; -97570800; -6103515; -36621093; -12207031; 3800000000; -900000000; 800000000; 10332453918;2300000000; 3200000000; 5000000000; 5009099390; 2000077120; 50.090553999271286; 20.001243060711445
-13305664; 1354980; -97570800; -6103515; -36621093; -12207031; 3800000000; -800000000; 800000000; 10188865661;2300000000; 3200000000; 5000000000; 5009099390; 2000077120; 50.090553999271286; 20.001243060711445
-13305664; 1293945; -97546386; -18310546; -24414062; -12207031; 3800000000; -900000000; 800000000; 10332453918;2300000000; 3200000000; 5000000000; 5009099390; 2000077120; 50.090553999271286; 20.001243060711445
-13354492; 1379394; -97583007; -6103515; -36621093; -12207031; 3800000000; -800000000; 800000000; 10188865661;2300000000; 3200000000; 5000000000; 5009099390; 2000077120; 50.090553999271286; 20.001243060711445
-13378906; 1342773; -97607421; 0; -42724609; -12207031; 3900000000; -800000000; 800000000; 10159217071;2300000000; 3200000000; 5000000000; 5009099390; 2000077120; 50.090553999271286; 20.001243060711445
-13330078; 1391601; -97607421; 0; -42724609; -6103515; 3800000000; -800000000; 900000000; 10188865661;2300000000; 3200000000; 5000000000; 5009099390; 2000077120; 50.090553999271286; 20.001243060711445
-13354492; 1281738; -97583007; -18310546; -30517578; -12207031; 3800000000; -900000000; 800000000; 10332453918;2300000000; 3200000000; 5000000000; 5009099390; 2000077120; 50.090553999271286; 20.001243060711445
-13330078; 1293945; -97546386; 0; -36621093; -12207031; 3800000000; -900000000; 800000000; 10332453918;2300000000; 3200000000; 5000000000; 5009099390; 2000077120; 50.090553999271286; 20.001243060711445
-13391113; 1293945; -97619628; -18310546; -30517578; -12207031; 3800000000; -900000000; 800000000; 10332453918;2300000000; 3200000000; 5000000000; 5009099390; 2000077120; 50.090553999271286; 20.001243060711445
-13366699; 1330566; -97607421; -6103515; -36621093; -12207031; 3800000000; -900000000; 800000000; 10332453918;2300000000; 3200000000; 5000000000; 5009099390; 2000077120; 50.090553999271286; 20.001243060711445
-13354492; 1306152; -97595214; -18310546; -36621093; -12207031; 3900000000; -900000000; 800000000; 10299462127;2300000000; 3200000000; 5000000000; 5009099390; 2000077120; 50.090553999271286; 20.001243060711445
-13354492; 1379394; -97607421; -6103515; -36621093; -12207031; 3900000000; -800000000; 800000000; 10159217071;2300000000; 3200000000; 5000000000; 5009099390; 2000077120; 50.090553999271286; 20.001243060711445
-13330078; 1257324; -97644042; -6103515; -36621093; -12207031; 3900000000; -900000000; 800000000; 10299462127;2300000000; 3200000000; 5000000000; 5009099390; 2000077120; 50.090553999271286; 20.001243060711445
-13281250; 1293945; -97619628; -12207031; -36621093; -12207031; 3900000000; -900000000; 700000000; 10299462127;2300000000; 3200000000; 5000000000; 5009099390; 2000077120; 50.090553999271286; 20.001243060711445
-13391113; 1257324; -97558593; -6103515; -36621093; -6103515; 3900000000; -900000000; 800000000; 10299462127;2300000000; 3200000000; 5000000000; 5009099390; 2000077120; 50.090553999271286; 20.001243060711445
-13366699; 1269531; -97534179; -6103515; -30517578; -12207031; 3900000000; -900000000; 900000000; 10332453918;2300000000; 3200000000; 5000000000; 5009099390; 2000077120; 50.090553999271286; 20.001243060711445
-13293457; 1330566; -97583007; -18310546; -30517578; -18310546; 3800000000; -900000000; 800000000; 10332453918;2300000000; 3200000000; 5000000000; 5009099390; 2000077120; 50.090553999271286; 20.001243060711445
-13378906; 1318359; -97546386; 0; -42724609; -12207031; 3900000000; -800000000; 700000000; 10159217071;2300000000; 3200000000; 5000000000; 5009099390; 2000077120; 50.090553999271286; 20.001243060711445
-13317871; 1330566; -97509765; -6103515; -36621093; -12207031; 3800000000; -900000000; 700000000; 10332453918;2300000000; 3200000000; 5000000000; 5009099390; 2000077120; 50.090553999271286; 20.001243060711445
-13293457; 1281738; -97570800; -6103515; -36621093; -12207031; 3800000000; -800000000; 800000000; 10188865661;2300000000; 3200000000; 5000000000; 5009099390; 2000077120; 50.090553999271286; 20.001243060711445
-13378906; 1403808; -97619628; -18310546; -30517578; -12207031; 3800000000; -900000000; 800000000; 10332453918;2300000000; 3200000000; 5000000000; 5009099390; 2000077120; 50.090553999271286; 20.001243060711445
-13269042; 1330566; -97546386; 0; -36621093; -12207031; 3800000000; -900000000; 700000000; 10332453918;2300000000; 3200000000; 5000000000; 5009099390; 2000077120; 50.090553999271286; 20.001243060711445
-13269042; 1293945; -97521972; -6103515; -36621093; -12207031; 3800000000; -900000000; 800000000; 10332453918;2300000000; 3200000000; 5000000000; 5009099390; 2000077120; 50.090553999271286; 20.001243060711445
-13208007; 1379394; -97595214; 0; -36621093; -12207031; 3800000000; -800000000; 800000000; 10188865661;2300000000; 3200000000; 5000000000; 5009099390; 2000077120; 50.090553999271286; 20.001243060711445
-13378906; 1635742; -97558593; 6103515; -42724609; -12207031; 3900000000; -900000000; 900000000; 10299462127;2300000000; 3200000000; 5000000000; 5009099390; 2000077120; 50.090553999271286; 20.001243060711445
-13244628; 1196289; -97644042; 0; -36621093; -12207031; 3900000000; -900000000; 800000000; 10299462127;2300000000; 3200000000; 5000000000; 5009099390; 2000077120; 50.090553999271286; 20.001243060711445
-13293457; 1245117; -97692871; -24414062; -30517578; -12207031; 3800000000; -800000000; 800000000; 10188865661;2300000000; 3200000000; 5000000000; 5009099390; 2000077120; 50.090553999271286; 20.001243060711445
-13330078; 1538085; -97595214; -6103515; -36621093; -12207031; 3800000000; -800000000; 800000000; 10188865661;2300000000; 3200000000; 5000000000; 5009099390; 2000077120; 50.090553999271286; 20.001243060711445
-13293457; 1025390; -97631835; -6103515; -36621093; -12207031; 3800000000; -800000000; 800000000; 10188865661;2300000000; 3200000000; 5000000000; 5009099390; 2000077120; 50.090553999271286; 20.001243060711445
-13391113; 1452636; -97656250; 0; -42724609; -12207031; 3900000000; -900000000; 800000000; 10299462127;2300000000; 3200000000; 5000000000; 5009099390; 2000077120; 50.090553999271286; 20.001243060711445
-13366699; 1306152; -97570800; -6103515; -36621093; -12207031; 3900000000; -900000000; 800000000; 10299462127;2300000000; 3200000000; 5000000000; 5009099390; 2000077120; 50.090553999271286; 20.001243060711445
-13317871; 1245117; -97607421; -6103515; -36621093; -12207031; 3800000000; -800000000; 900000000; 10188865661;2300000000; 3200000000; 5000000000; 5009099390; 2000077120; 50.090553999271286; 20.001243060711445
-13366699; 1428222; -97570800; 0; -42724609; -12207031; 3800000000; -800000000; 800000000; 10188865661;2300000000; 3200000000; 5000000000; 5009099390; 2000077120; 50.090553999271286; 20.001243060711445
-13525390; 1123046; -97509765; -12207031; -36621093; -12207031; 3800000000; -900000000; 800000000; 10188865661;2300000000; 3200000000; 5000000000; 5009099390; 2000077120; 50.090553999271286; 20.001243060711445
-13049316; 1330566; -97595214; -12207031; -36621093; -12207031; 3800000000; -800000000; 800000000; 10188865661;2300000000; 3200000000; 5000000000; 5009099390; 2000077120; 50.090553999271286; 20.001243060711445
-13696289; 1257324; -97509765; -6103515; -36621093; -6103515; 3800000000; -800000000; 800000000; 10188865661;2300000000; 3200000000; 5000000000; 5009099390; 2000077120; 50.090553999271286; 20.001243060711445
-13171386; 1245117; -97583007; -12207031; -36621093; -12207031; 3800000000; -900000000; 800000000; 10332453918;2300000000; 3200000000; 5000000000; 5009099390; 2000077120; 50.090553999271286; 20.001243060711445
-13439941; 1306152; -97583007; -6103515; -36621093; -12207031; 3800000000; -800000000; 700000000; 10188865661;2300000000; 3200000000; 5000000000; 5009099390; 2000077120; 50.090553999271286; 20.001243060711445
-13281250; 1416015; -97521972; -6103515; -36621093; -12207031; 3900000000; -900000000; 800000000; 10299462127;2300000000; 3200000000; 5000000000; 5009099390; 2000077120; 50.090553999271286; 20.001243060711445
-13244628; 1306152; -97595214; 6103515; -42724609; -12207031; 3800000000; -800000000; 800000000; 10188865661;2300000000; 3200000000; 5000000000; 5009099390; 2000077120; 50.090553999271286; 20.001243060711445
-13403320; 1342773; -97583007; 0; -42724609; -12207031; 3800000000; -800000000; 700000000; 10188865661;2300000000; 3200000000; 5000000000; 5009099390; 2000077120; 50.090553999271286; 20.001243060711445
-13256835; 1293945; -97619628; -12207031; -36621093; -12207031; 3900000000; -800000000; 800000000; 10159217071;2300000000; 3200000000; 5000000000; 5009099390; 2000077120; 50.090553999271286; 20.001243060711445
-13293457; 1318359; -97558593; -6103515; -36621093; -12207031; 3800000000; -900000000; 800000000; 10332453918;2300000000; 3200000000; 5000000000; 5009099390; 2000077120; 50.090553999271286; 20.001243060711445
-13342285; 1367187; -97607421; -6103515; -36621093; -12207031; 3800000000; -800000000; 800000000; 10188865661;2300000000; 3200000000; 5000000000; 5009099390; 2000077120; 50.090553999271286; 20.001243060711445
-13415527; 1269531; -97631835; 0; -36621093; -12207031; 3900000000; -900000000; 800000000; 10299462127;2300000000; 3200000000; 5000000000; 5009099390; 2000077120; 50.090553999271286; 20.001243060711445
-13439941; 1208496; -97497558; -18310546; -30517578; -12207031; 3800000000; -800000000; 800000000; 10188865661;2300000000; 3200000000; 5000000000; 5009099390; 2000077120; 50.090553999271286; 20.001243060711445
-13305664; 1477050; -97607421; -6103515; -36621093; -12207031; 3800000000; -800000000; 800000000; 10188865661;2300000000; 3200000000; 5000000000; 5009099390; 2000077120; 50.090553999271286; 20.001243060711445
-13415527; 1306152; -97607421; -6103515; -30517578; -12207031; 3900000000; -800000000; 800000000; 10159217071;2300000000; 3200000000; 5000000000; 5009099390; 2000077120; 50.090553999271286; 20.001243060711445
-13183593; 1318359; -97546386; -6103515; -36621093; -18310546; 3800000000; -800000000; 800000000; 10188865661;2300000000; 3200000000; 5000000000; 5009099390; 2000077120; 50.090553999271286; 20.001243060711445
-13464355; 1318359; -97644042; -12207031; -30517578; -12207031; 3900000000; -800000000; 700000000; 10159217071;2300000000; 3200000000; 5000000000; 5009099390; 2000077120; 50.090553999271286; 20.001243060711445
-13281250; 1220703; -97595214; 0; -36621093; -12207031; 3800000000; -800000000; 800000000; 10188865661;2300000000; 3200000000; 5000000000; 5009099390; 2000077120; 50.090553999271286; 20.001243060711445
-13269042; 1379394; -97521972; -12207031; -36621093; -12207031; 3800000000; -800000000; 800000000; 10188865661;2300000000; 3200000000; 5000000000; 5009099390; 2000077120; 50.090553999271286; 20.001243060711445
-13378906; 1220703; -97546386; 6103515; -36621093; -12207031; 3800000000; -900000000; 800000000; 10332453918;2300000000; 3200000000; 5000000000; 5009099390; 2000077120; 50.090553999271286; 20.001243060711445
-13134765; 1354980; -97631835; -12207031; -36621093; -12207031; 3800000000; -900000000; 800000000; 10332453918;2300000000; 3200000000; 5000000000; 5009099390; 2000077120; 50.090553999271286; 20.001243060711445
-13745117; 1428222; -97497558; 6103515; -36621093; -12207031; 3800000000; -800000000; 900000000; 10188865661;2300000000; 3200000000; 5000000000; 5009099390; 2000077120; 50.090553999271286; 20.001243060711445
-12658691; 1306152; -97558593; -18310546; -30517578; -12207031; 3800000000; -800000000; 800000000; 10188865661;2300000000; 3200000000; 5000000000; 5009099390; 2000077120; 50.090553999271286; 20.001243060711445
-13769531; 1428222; -97583007; -6103515; -36621093; -12207031; 3800000000; -800000000; 800000000; 10188865661;2300000000; 3200000000; 5000000000; 5009099390; 2000077120; 50.090553999271286; 20.001243060711445
-12939453; 1293945; -97583007; -6103515; -36621093; -12207031; 3800000000; -900000000; 800000000; 10332453918;2300000000; 3200000000; 5000000000; 5009099390; 2000077120; 50.090553999271286; 20.001243060711445
-13439941; 1281738; -97558593; -12207031; -36621093; -12207031; 3800000000; -900000000; 800000000; 10188865661;2300000000; 3200000000; 5000000000; 5009099390; 2000077120; 50.090553999271286; 20.001243060711445
-13281250; 1513671; -97619628; -6103515; -36621093; -12207031; 3800000000; -800000000; 800000000; 10188865661;2300000000; 3200000000; 5000000000; 5009099390; 2000077120; 50.090553999271286; 20.001243060711445
-13293457; 1220703; -97619628; -12207031; -30517578; -12207031; 3900000000; -800000000; 700000000; 10159217071;2300000000; 3200000000; 5000000000; 5009099390; 2000077120; 50.090553999271286; 20.001243060711445
-13403320; 1416015; -97546386; -12207031; -36621093; -12207031; 3800000000; -900000000; 800000000; 10332453918;2300000000; 3200000000; 5000000000; 5009099390; 2000077120; 50.090553999271286; 20.001243060711445
-13281250; 1306152; -97595214; 0; -42724609; -12207031; 3800000000; -800000000; 800000000; 10188865661;2300000000; 3200000000; 5000000000; 5009099390; 2000077120; 50.090553999271286; 20.001243060711445
-13366699; 1354980; -97595214; -18310546; -30517578; -12207031; 3800000000; -900000000; 800000000; 10332453918;2300000000; 3200000000; 5000000000; 5009099390; 2000077120; 50.090553999271286; 20.001243060711445
-13293457; 1330566; -97546386; -6103515; -42724609; -12207031; 3900000000; -900000000; 700000000; 10299462127;2300000000; 3200000000; 5000000000; 5009099390; 2000077120; 50.090553999271286; 20.001243060711445
-13476562; 1489257; -97619628; -12207031; -36621093; -6103515; 3900000000; -800000000; 800000000; 10159217071;2300000000; 3200000000; 5000000000; 5009099390; 2000077120; 50.090553999271286; 20.001243060711445
-13146972; 1293945; -97607421; 6103515; -36621093; -12207031; 3800000000; -800000000; 800000000; 10188865661;2300000000; 3200000000; 5000000000; 5009099390; 2000077120; 50.090553999271286; 20.001243060711445
-13403320; 1354980; -97583007; -30517578; -30517578; -6103515; 3800000000; -900000000; 900000000; 10332453918;2300000000; 3200000000; 5000000000; 5009099390; 2000077120; 50.090553999271286; 20.001243060711445
-13342285; 1391601; -97558593; 0; -36621093; -12207031; 3900000000; -800000000; 900000000; 10159217071;2300000000; 3200000000; 5000000000; 5009099390; 2000077120; 50.090553999271286; 20.001243060711445
-13317871; 1208496; -97607421; -12207031; -36621093; -12207031; 3800000000; -900000000; 800000000; 10332453918;2300000000; 3200000000; 5000000000; 5009099390; 2000077120; 50.090553999271286; 20.001243060711445
-13354492; 1354980; -97595214; -12207031; -36621093; -12207031; 3800000000; -800000000; 800000000; 10188865661;2300000000; 3200000000; 5000000000; 5009099390; 2000077120; 50.090553999271286; 20.001243060711445
-13391113; 1330566; -97558593; -6103515; -36621093; -12207031; 3800000000; -800000000; 800000000; 10159217071;2300000000; 3200000000; 5000000000; 5009099390; 2000077120; 50.090553999271286; 20.001243060711445
-13171386; 1293945; -97619628; -18310546; -30517578; -12207031; 3800000000; -800000000; 800000000; 10188865661;2300000000; 3200000000; 5000000000; 5009099390; 2000077120; 50.090553999271286; 20.001243060711445
-13452148; 1245117; -97546386; -6103515; -36621093; -12207031; 3900000000; -800000000; 900000000; 10159217071;2300000000; 3200000000; 5000000000; 5009099390; 2000077120; 50.090553999271286; 20.001243060711445
-13256835; 1306152; -97583007; -6103515; -36621093; -12207031; 3800000000; -800000000; 800000000; 10188865661;2300000000; 3200000000; 5000000000; 5009099390; 2000077120; 50.090553999271286; 20.001243060711445
-13366699; 1367187; -97631835; -12207031; -30517578; -12207031; 3900000000; -900000000; 800000000; 10299462127;2300000000; 3200000000; 5000000000; 5009099390; 2000077120; 50.090553999271286; 20.001243060711445
-13342285; 1367187; -97644042; -6103515; -30517578; -12207031; 3800000000; -800000000; 700000000; 10188865661;2300000000; 3200000000; 5000000000; 5009099390; 2000077120; 50.090553999271286; 20.001243060711445
-13305664; 1135253; -97631835; -6103515; -36621093; -12207031; 3900000000; -800000000; 800000000; 10188865661;2300000000; 3200000000; 5000000000; 5009099390; 2000077120; 50.090553999271286; 20.001243060711445
-13281250; 1391601; -97546386; -6103515; -36621093; -12207031; 3800000000; -800000000; 900000000; 10188865661;2300000000; 3200000000; 5000000000; 5009099390; 2000077120; 50.090553999271286; 20.001243060711445
-13220214; 1232910; -97668457; 0; -36621093; -18310546; 3800000000; -900000000; 700000000; 10332453918;2300000000; 3200000000; 5000000000; 5009099390; 2000077120; 50.090553999271286; 20.001243060711445
-13720703; 1440429; -97558593; -30517578; -24414062; -12207031; 3800000000; -800000000; 800000000; 10188865661;2300000000; 3200000000; 5000000000; 5009099390; 2000077120; 50.090553999271286; 20.001243060711445
-12951660; 1489257; -97570800; 0; -42724609; -12207031; 3800000000; -800000000; 800000000; 10188865661;2300000000; 3200000000; 5000000000; 5009099390; 2000077120; 50.090553999271286; 20.001243060711445
-13330078; 1074218; -97656250; -12207031; -42724609; -6103515; 3800000000; -800000000; 800000000; 10188865661;2300000000; 3200000000; 5000000000; 5009099390; 2000077120; 50.090553999271286; 20.001243060711445
-13610839; 1599121; -97534179; -12207031; -36621093; -12207031; 3900000000; -900000000; 800000000; 10188865661;2300000000; 3200000000; 5000000000; 5009099390; 2000077120; 50.090553999271286; 20.001243060711445
-12890625; 1330566; -97558593; 6103515; -42724609; -12207031; 3900000000; -800000000; 800000000; 10159217071;2300000000; 3200000000; 5000000000; 5009099390; 2000077120; 50.090553999271286; 20.001243060711445
-13916015; 305175; -97485351; 36621093; -48828125; -18310546; 3900000000; -800000000; 700000000; 10159217071;2300000000; 3200000000; 5000000000; 5009099390; 2000077120; 50.090553999271286; 20.001243060711445
-12915039; 2355957; -97619628; 24414062; -30517578; -18310546; 3800000000; -900000000; 800000000; 10332453918;2300000000; 3200000000; 5000000000; 5009099390; 2000077120; 50.090553999271286; 20.001243060711445
-13574218; 732421; -97595214; 48828125; -48828125; -18310546; 3900000000; -800000000; 800000000; 10159217071;2300000000; 3200000000; 5000000000; 5009099390; 2000077120; 50.090553999271286; 20.001243060711445
-13171386; 1635742; -97607421; -42724609; -42724609; -6103515; 3900000000; -800000000; 700000000; 10159217071;2300000000; 3200000000; 5000000000; 5009099390; 2000077120; 50.090553999271286; 20.001243060711445
-13342285; 1110839; -97583007; 24414062; -48828125; -18310546; 3800000000; -900000000; 700000000; 10332453918;2300000000; 3200000000; 5000000000; 5009099390; 2000077120; 50.090553999271286; 20.001243060711445
-13586425; 1098632; -97558593; -30517578; -36621093; -12207031; 3900000000; -900000000; 800000000; 10474355316;2300000000; 3200000000; 5000000000; 5009099390; 2000077120; 50.090553999271286; 20.001243060711445
-12963867; 1586914; -97521972; 36621093; -42724609; -6103515; 3800000000; -800000000; 800000000; 10188865661;2300000000; 3200000000; 5000000000; 5009099390; 2000077120; 50.090553999271286; 20.001243060711445
-13513183; 939941; -97558593; -61035156; -24414062; 0; 3900000000; -900000000; 800000000; 10299462127;2300000000; 3200000000; 5000000000; 5009099390; 2000077120; 50.090553999271286; 20.001243060711445
-13305664; 1660156; -97546386; 48828125; -36621093; -18310546; 3900000000; -900000000; 900000000; 10299462127;2300000000; 3200000000; 5000000000; 5009099390; 2000077120; 50.090553999271286; 20.001243060711445
-13269042; 964355; -97607421; 30517578; -42724609; -18310546; 3800000000; -900000000; 800000000; 10332453918;2300000000; 3200000000; 5000000000; 5009099390; 2000077120; 50.090553999271286; 20.001243060711445
-13391113; 1501464; -97546386; -61035156; -30517578; -12207031; 3800000000; -800000000; 800000000; 10188865661;2300000000; 3200000000; 5000000000; 5009099390; 2000077120; 50.090553999271286; 20.001243060711445
-13403320; 1391601; -97607421; 6103515; -36621093; -12207031; 3800000000; -900000000; 800000000; 10159217071;2300000000; 3200000000; 5000000000; 5009099390; 2000077120; 50.090553999271286; 20.001243060711445
-13281250; 1257324; -97595214; -18310546; -36621093; -12207031; 3800000000; -800000000; 800000000; 10188865661;2300000000; 3200000000; 5000000000; 5009099390; 2000077120; 50.090553999271286; 20.001243060711445
-13513183; 1550292; -97583007; -6103515; -36621093; -12207031; 3900000000; -900000000; 700000000; 10299462127;2300000000; 3200000000; 5000000000; 5009099390; 2000077120; 50.090553999271286; 20.001243060711445
-13281250; 1184082; -97558593; 0; -42724609; -12207031; 3900000000; -900000000; 800000000; 10299462127;2300000000; 3200000000; 5000000000; 5009099390; 2000077120; 50.090553999271286; 20.001243060711445
-13281250; 1416015; -97595214; -18310546; -30517578; -12207031; 3900000000; -900000000; 900000000; 10299462127;2300000000; 3200000000; 5000000000; 5009099390; 2000077120; 50.090553999271286; 20.001243060711445
-13769531; 1464843; -97485351; 30517578; -48828125; -24414062; 3900000000; -900000000; 700000000; 10299462127;2300000000; 3200000000; 5000000000; 5009099390; 2000077120; 50.090553999271286; 20.001243060711445
-12719726; 732421; -97448730; -6103515; -36621093; -18310546; 3900000000; -800000000; 900000000; 10159217071;2300000000; 3200000000; 5000000000; 5009099390; 2000077120; 50.090553999271286; 20.001243060711445
-14013671; 2026367; -97473144; 54931640; -48828125; -18310546; 3900000000; -900000000; 700000000; 10299462127;2300000000; 3200000000; 5000000000; 5009099390; 2000077120; 50.090553999271286; 20.001243060711445
-13049316; 1049804; -97619628; 12207031; -36621093; -12207031; 3900000000; -1000000000; 700000000; 10438139343;2300000000; 3200000000; 5000000000; 5009099390; 2000077120; 50.090553999271286; 20.001243060711445
-13330078; 1293945; -97583007; -12207031; -30517578; -18310546; 3800000000; -1000000000; 800000000; 10474355316;2300000000; 3200000000; 5000000000; 5009099390; 2000077120; 50.090553999271286; 20.001243060711445
-13586425; 1611328; -97595214; 6103515; -36621093; -12207031; 3800000000; -900000000; 700000000; 10332453918;2300000000; 3200000000; 5000000000; 5009099390; 2000077120; 50.090553999271286; 20.001243060711445
-13171386; 1245117; -97631835; -18310546; -30517578; -12207031; 3800000000; -900000000; 800000000; 10332453918;2300000000; 3200000000; 5000000000; 5009099390; 2000077120; 50.090553999271286; 20.001243060711445
-13354492; 1513671; -97521972; -18310546; -30517578; -12207031; 3800000000; -900000000; 800000000; 10332453918;2300000000; 3200000000; 5000000000; 5009099390; 2000077120; 50.090553999271286; 20.001243060711445
-13549804; 756835; -97790527; -12207031; -30517578; -12207031; 3900000000; -900000000; 800000000; 10332453918;2300000000; 3200000000; 5000000000; 5009099390; 2000077120; 50.090553999271286; 20.001243060711445
-13037109; 2172851; -97692871; -201416015; -6103515; 12207031; 3900000000; -900000000; 800000000; 10299462127;2300000000; 3200000000; 5000000000; 5009099390; 2000077120; 50.090553999271286; 20.001243060711445
-13671875; 964355; -97558593; 48828125; -48828125; -18310546; 3900000000; -900000000; 800000000; 10299462127;2300000000; 3200000000; 5000000000; 5009099390; 2000077120; 50.090553999271286; 20.001243060711445
-13000488; 1574707; -97692871; -122070312; -24414062; -6103515; 3800000000; -1000000000; 900000000; 10474355316;2300000000; 3200000000; 5000000000; 5009099390; 2000077120; 50.090553999271286; 20.001243060711445
-13378906; 1916503; -97497558; 0; -36621093; -6103515; 3900000000; -900000000; 800000000; 10299462127;2300000000; 3200000000; 5000000000; 5009099390; 2000077120; 50.090553999271286; 20.001243060711445
-13403320; 1416015; -97583007; 24414062; -42724609; -12207031; 3800000000; -900000000; 800000000; 10332453918;2300000000; 3200000000; 5000000000; 5009099390; 2000077120; 50.090553999271286; 20.001243060711445
-13159179; 1184082; -97534179; 6103515; -36621093; -18310546; 3800000000; -800000000; 800000000; 10299462127;2300000000; 3200000000; 5000000000; 5009099390; 2000077120; 50.090553999271286; 20.001243060711445
-13476562; 1184082; -97570800; -36621093; -30517578; -6103515; 3800000000; -900000000; 800000000; 10332453918;2300000000; 3200000000; 5000000000; 5009099390; 2000077120; 50.090553999271286; 20.001243060711445
-13342285; 1428222; -97644042; 0; -36621093; -12207031; 3800000000; -900000000; 700000000; 10332453918;2300000000; 3200000000; 5000000000; 5009099390; 2000077120; 50.090553999271286; 20.001243060711445
-13269042; 1159667; -97595214; -6103515; -36621093; -12207031; 3900000000; -900000000; 800000000; 10299462127;2300000000; 3200000000; 5000000000; 5009099390; 2000077120; 50.090553999271286; 20.001243060711445
-13281250; 1428222; -97595214; -12207031; -36621093; -12207031; 3900000000; -900000000; 800000000; 10299462127;2300000000; 3200000000; 5000000000; 5009099390; 2000077120; 50.090553999271286; 20.001243060711445
-13269042; 1245117; -97656250; -6103515; -36621093; -12207031; 3900000000; -900000000; 800000000; 10299462127;2300000000; 3200000000; 5000000000; 5009099390; 2000077120; 50.090553999271286; 20.001243060711445
-13146972; 1464843; -97583007; -73242187; -24414062; -6103515; 3900000000; -900000000; 700000000; 10299462127;2300000000; 3200000000; 5000000000; 5009099390; 2000077120; 50.090553999271286; 20.001243060711445
-13720703; 1123046; -97668457; 67138671; -42724609; -12207031; 3800000000; -900000000; 700000000; 10332453918;2300000000; 3200000000; 5000000000; 5009099390; 2000077120; 50.090553999271286; 20.001243060711445
-13830566; 463867; -97241210; -219726562; 0; 12207031; 3900000000; -900000000; 800000000; 10299462127;2300000000; 3200000000; 5000000000; 5009099390; 2000077120; 50.090553999271286; 20.001243060711445
-13720703; 2612304; -97766113; -494384765; 54931640; 48828125; 3900000000; -900000000; 800000000; 10299462127;2300000000; 3200000000; 5000000000; 5009099390; 2000077120; 50.090553999271286; 20.001243060711445
-11462402; -732421; -97717285; 219726562; -79345703; -48828125; 3800000000; -900000000; 700000000; 10332453918;2300000000; 3200000000; 5000000000; 5009099390; 2000077120; 50.090553999271286; 20.001243060711445
-15014648; 2465820; -97521972; -311279296; 6103515; -1544189453; 3800000000; -900000000; 800000000; 10332453918;2300000000; 3200000000; 5000000000; 5009099390; 2000077120; 50.090553999271286; 20.001243060711445
-11694335; 280761; -97570800; 12207031; -42724609; -12207031; 3800000000; -900000000; 700000000; 10332453918;2300000000; 3200000000; 5000000000; 5009099390; 2000077120; 50.090553999271286; 20.001243060711445
-14379882; 1782226; -97497558; 128173828; -61035156; -30517578; 3800000000; -900000000; 800000000; 10332453918;2300000000; 3200000000; 5000000000; 5009099390; 2000077120; 50.090553999271286; 20.001243060711445
-12561035; 744628; -97485351; -6103515; -42724609; -12207031; 3800000000; -900000000; 900000000; 10332453918;2300000000; 3200000000; 5000000000; 5009099390; 2000077120; 50.090553999271286; 20.001243060711445
-10131835; -927734; -97399902; 262451171; -73242187; -42724609; 3800000000; -900000000; 900000000; 10332453918;2300000000; 3200000000; 5000000000; 5009099390; 2000077120; 50.090553999271286; 20.001243060711445
-14392089; 2050781; -97265625; 18310546; -30517578; -18310546; 3800000000; -900000000; 900000000; 10332453918;2300000000; 3200000000; 5000000000; 5009099390; 2000077120; 50.090553999271286; 20.001243060711445
-12817382; 1721191; -97619628; 73242187; -48828125; -6103515; 3800000000; -900000000; 900000000; 10332453918;2300000000; 3200000000; 5000000000; 5009099390; 2000077120; 50.090553999271286; 20.001243060711445
-12573242; 2600097; -97351074; -805664062; 85449218; 140380859; 3800000000; -900000000; 900000000; 10332453918;2300000000; 3200000000; 5000000000; 5009099390; 2000077120; 50.090553999271286; 20.001243060711445
-13000488; 2319335; -97827148; -225830078; -366210937; 3253173828; 3800000000; -900000000; 900000000; 10332453918;2300000000; 3200000000; 5000000000; 5009099390; 2000077120; 50.090553999271286; 20.001243060711445
-13208007; 4846191; -97729492; 329589843; -67138671; 1007080078; 3700000000; -800000000; 1000000000; 10220046997;2300000000; 3200000000; 5000000000; 5009099390; 2000077120; 50.090553999271286; 20.001243060711445
-14379882; 2319335; -97912597; 604248046; -164794921; -103759765; 3800000000; -700000000; 1000000000; 10043747711;2300000000; 3200000000; 5000000000; 5009099390; 2000077120; 50.090553999271286; 20.001243060711445
-12976074; -720214; -97668457; -347900390; -18310546; -18310546; 3800000000; -700000000; 1000000000; 10043747711;2300000000; 3200000000; 5000000000; 5009099390; 2000077120; 50.090553999271286; 20.001243060711445
-13623046; -73242; -97399902; 531005859; -146484375; -91552734; 3700000000; -700000000; 1000000000; 10071311950;2300000000; 3200000000; 5000000000; 5009099390; 2000077120; 50.090553999271286; 20.001243060711445
-14477539; 598144; -97692871; 177001953; -61035156; -36621093; 3800000000; -700000000; 1100000000; 10043747711;2300000000; 3200000000; 5000000000; 5009099390; 2000077120; 50.090553999271286; 20.001243060711445
-13269042; 2148437; -97619628; -286865234; 0; 36621093; 3800000000; -800000000; 1000000000; 10188865661;2300000000; 3200000000; 5000000000; 5009099390; 2000077120; 50.090553999271286; 20.001243060711445
-14270019; 708007; -97412109; -67138671; -30517578; -18310546; 3800000000; -800000000; 1000000000; 10188865661;2300000000; 3200000000; 5000000000; 5009099390; 2000077120; 50.090553999271286; 20.001243060711445
-14501953; -134277; -97241210; 134277343; -67138671; -30517578; 3700000000; -700000000; 900000000; 10071311950;2300000000; 3200000000; 5000000000; 5009099390; 2000077120; 50.090553999271286; 20.001243060711445
-13366699; 1672363; -97729492; -286865234; 24414062; 36621093; 3700000000; -700000000; 1000000000; 10071311950;2300000000; 3200000000; 5000000000; 5009099390; 2000077120; 50.090553999271286; 20.001243060711445
-13427734; -73242; -97546386; 286865234; -103759765; -67138671; 3800000000; -700000000; 1000000000; 10043747711;2300000000; 3200000000; 5000000000; 5009099390; 2000077120; 50.090553999271286; 20.001243060711445
-14526367; 952148; -97558593; -42724609; -24414062; -12207031; 3700000000; -700000000; 1100000000; 10071311950;2300000000; 3200000000; 5000000000; 5009099390; 2000077120; 50.090553999271286; 20.001243060711445
-13635253; 317382; -97460937; 24414062; -42724609; -18310546; 3800000000; -700000000; 1100000000; 10043747711;2300000000; 3200000000; 5000000000; 5009099390; 2000077120; 50.090553999271286; 20.001243060711445
-14257812; 402832; -97460937; 30517578; -42724609; -18310546; 3700000000; -800000000; 1100000000; 10071311950;2300000000; 3200000000; 5000000000; 5009099390; 2000077120; 50.090553999271286; 20.001243060711445
-13208007; 598144; -97314453; 18310546; -42724609; -18310546; 3800000000; -800000000; 1000000000; 10188865661;2300000000; 3200000000; 5000000000; 5009099390; 2000077120; 50.090553999271286; 20.001243060711445
-14355468; 73242; -97546386; 85449218; -61035156; -30517578; 3800000000; -700000000; 1000000000; 10043747711;2300000000; 3200000000; 5000000000; 5009099390; 2000077120; 50.090553999271286; 20.001243060711445
-13769531; 1013183; -97644042; -109863281; -12207031; 6103515; 3700000000; -700000000; 1000000000; 10071311950;2300000000; 3200000000; 5000000000; 5009099390; 2000077120; 50.090553999271286; 20.001243060711445
-13903808; 354003; -97436523; 42724609; -42724609; -18310546; 3700000000; -700000000; 1100000000; 10071311950;2300000000; 3200000000; 5000000000; 5009099390; 2000077120; 50.090553999271286; 20.001243060711445
-14086914; 488281; -97680664; -18310546; -30517578; -12207031; 3700000000; -800000000; 1100000000; 10220046997;2300000000; 3200000000; 5000000000; 5009099390; 2000077120; 50.090553999271286; 20.001243060711445
-14038085; 622558; -97424316; -97656250; -18310546; 6103515; 3700000000; -700000000; 1000000000; 10071311950;2300000000; 3200000000; 5000000000; 5009099390; 2000077120; 50.090553999271286; 20.001243060711445
-13757324; 646972; -97558593; 18310546; -48828125; -12207031; 3700000000; -700000000; 1000000000; 10071311950;2300000000; 3200000000; 5000000000; 5009099390; 2000077120; 50.090553999271286; 20.001243060711445
-13806152; 537109; -97534179; 12207031; -42724609; -12207031; 3700000000; -700000000; 900000000; 10071311950;2300000000; 3200000000; 5000000000; 5009099390; 2000077120; 50.090553999271286; 20.001243060711445
-14001464; 366210; -97448730; 6103515; -42724609; -18310546; 3800000000; -700000000; 1000000000; 10043747711;2300000000; 3200000000; 5000000000; 5009099390; 2000077120; 50.090553999271286; 20.001243060711445
-13757324; 549316; -97497558; -42724609; -30517578; -6103515; 3700000000; -700000000; 1100000000; 10071311950;2300000000; 3200000000; 5000000000; 5009099390; 2000077120; 50.090553999271286; 20.001243060711445
-14233398; 842285; -97583007; 12207031; -42724609; -12207031; 3800000000; -700000000; 1100000000; 10043747711;2300000000; 3200000000; 5000000000; 5009099390; 2000077120; 50.090553999271286; 20.001243060711445
-14147949; 1049804; -97436523; 0; -36621093; -12207031; 3800000000; -800000000; 1000000000; 10188865661;2300000000; 3200000000; 5000000000; 5009099390; 2000077120; 50.090553999271286; 20.001243060711445
-13891601; 305175; -97436523; -6103515; -36621093; -12207031; 3700000000; -700000000; 1000000000; 10043747711;2300000000; 3200000000; 5000000000; 5009099390; 2000077120; 50.090553999271286; 20.001243060711445
-14147949; 561523; -97497558; -12207031; -36621093; -18310546; 3800000000; -700000000; 1000000000; 10043747711;2300000000; 3200000000; 5000000000; 5009099390; 2000077120; 50.090553999271286; 20.001243060711445
-13818359; 573730; -97473144; -6103515; -36621093; -12207031; 3800000000; -800000000; 1100000000; 10188865661;2300000000; 3200000000; 5000000000; 5009099390; 2000077120; 50.090553999271286; 20.001243060711445
-13793945; 256347; -97485351; 0; -36621093; -12207031; 3700000000; -700000000; 1100000000; 10071311950;2300000000; 3200000000; 5000000000; 5009099390; 2000077120; 50.090553999271286; 20.001243060711445
-13977050; 695800; -97619628; -30517578; -30517578; -12207031; 3800000000; -700000000; 1100000000; 10043747711;2300000000; 3200000000; 5000000000; 5009099390; 2000077120; 50.090553999271286; 20.001243060711445
-13952636; 244140; -97375488; -30517578; -24414062; -6103515; 3800000000; -700000000; 1000000000; 10043747711;2300000000; 3200000000; 5000000000; 5009099390; 2000077120; 50.090553999271286; 20.001243060711445
-13916015; 1123046; -97583007; -30517578; -30517578; -6103515; 3700000000; -700000000; 1000000000; 10043747711;2300000000; 3200000000; 5000000000; 5009099390; 2000077120; 50.090553999271286; 20.001243060711445
-13806152; 256347; -97290039; 140380859; -67138671; -30517578; 3700000000; -800000000; 1000000000; 10220046997;2300000000; 3200000000; 5000000000; 5009099390; 2000077120; 50.090553999271286; 20.001243060711445
-13610839; 341796; -97546386; -97656250; -12207031; 0; 3800000000; -700000000; 1000000000; 10043747711;2300000000; 3200000000; 5000000000; 5009099390; 2000077120; 50.090553999271286; 20.001243060711445
-14172363; 671386; -97460937; 12207031; -36621093; -12207031; 3700000000; -800000000; 1100000000; 10220046997;2300000000; 3200000000; 5000000000; 5009099390; 2000077120; 50.090553999271286; 20.001243060711445
-14086914; 402832; -97448730; -6103515; -30517578; -12207031; 3700000000; -800000000; 1000000000; 10220046997;2300000000; 3200000000; 5000000000; 5009099390; 2000077120; 50.090553999271286; 20.001243060711445
-13916015; 781250; -97521972; 0; -42724609; -12207031; 3700000000; -800000000; 1000000000; 10220046997;2300000000; 3200000000; 5000000000; 5009099390; 2000077120; 50.090553999271286; 20.001243060711445
-13891601; 366210; -97460937; -30517578; -30517578; -12207031; 3800000000; -700000000; 1000000000; 10188865661;2300000000; 3200000000; 5000000000; 5009099390; 2000077120; 50.090553999271286; 20.001243060711445
-13879394; 512695; -97570800; 18310546; -42724609; -12207031; 3800000000; -800000000; 1000000000; 10188865661;2300000000; 3200000000; 5000000000; 5009099390; 2000077120; 50.090553999271286; 20.001243060711445
-14038085; 537109; -97534179; -36621093; -30517578; -6103515; 3800000000; -800000000; 1100000000; 10188865661;2300000000; 3200000000; 5000000000; 5009099390; 2000077120; 50.090553999271286; 20.001243060711445
-14208984; 354003; -97473144; 61035156; -48828125; -18310546; 3800000000; -800000000; 1100000000; 10188865661;2300000000; 3200000000; 5000000000; 5009099390; 2000077120; 50.090553999271286; 20.001243060711445
-13989257; 756835; -97570800; -36621093; -30517578; -12207031; 3800000000; -700000000; 1000000000; 10043747711;2300000000; 3200000000; 5000000000; 5009099390; 2000077120; 50.090553999271286; 20.001243060711445
-14025878; 671386; -97460937; -24414062; -30517578; -6103515; 3800000000; -700000000; 1000000000; 10043747711;2300000000; 3200000000; 5000000000; 5009099390; 2000077120; 50.090553999271286; 20.001243060711445
-13549804; 183105; -97656250; 48828125; -48828125; -18310546; 3800000000; -700000000; 1000000000; 10071311950;2300000000; 3200000000; 5000000000; 5009099390; 2000077120; 50.090553999271286; 20.001243060711445
-13598632; 378417; -97497558; -115966796; -12207031; 0; 3700000000; -700000000; 1000000000; 10071311950;2300000000; 3200000000; 5000000000; 5009099390; 2000077120; 50.090553999271286; 20.001243060711445
-13598632; 744628; -97717285; 61035156; -54931640; -24414062; 3700000000; -700000000; 1000000000; 10071311950;2300000000; 3200000000; 5000000000; 5009099390; 2000077120; 50.090553999271286; 20.001243060711445
-14489746; 598144; -97351074; 48828125; -42724609; -12207031; 3800000000; -700000000; 1000000000; 10043747711;2300000000; 3200000000; 5000000000; 5009099390; 2000077120; 50.090553999271286; 20.001243060711445
-13830566; 671386; -97583007; -67138671; -18310546; 0; 3700000000; -700000000; 1000000000; 10071311950;2300000000; 3200000000; 5000000000; 5009099390; 2000077120; 50.090553999271286; 20.001243060711445
-14355468; 781250; -97436523; 79345703; -61035156; -24414062; 3700000000; -700000000; 1000000000; 10071311950;2300000000; 3200000000; 5000000000; 5009099390; 2000077120; 50.090553999271286; 20.001243060711445
-14245605; 305175; -97521972; -18310546; -30517578; -6103515; 3800000000; -700000000; 1000000000; 10188865661;2300000000; 3200000000; 5000000000; 5009099390; 2000077120; 50.090553999271286; 20.001243060711445
-13806152; 1257324; -97583007; -91552734; -18310546; 0; 3800000000; -800000000; 1000000000; 10188865661;2300000000; 3200000000; 5000000000; 5009099390; 2000077120; 50.090553999271286; 20.001243060711445
-14062500; 939941; -97521972; 85449218; -54931640; -30517578; 3700000000; -700000000; 1000000000; 10071311950;2300000000; 3200000000; 5000000000; 5009099390; 2000077120; 50.090553999271286; 20.001243060711445
-14282226; 1110839; -97619628; 12207031; -42724609; -12207031; 3800000000; -700000000; 1100000000; 10043747711;2300000000; 3200000000; 5000000000; 5009099390; 2000077120; 50.090553999271286; 20.001243060711445
-13720703; 402832; -97546386; -42724609; -30517578; -6103515; 3700000000; -700000000; 1000000000; 10071311950;2300000000; 3200000000; 5000000000; 5009099390; 2000077120; 50.090553999271286; 20.001243060711445
-13830566; 622558; -97473144; -18310546; -30517578; -12207031; 3700000000; -800000000; 1000000000; 10220046997;2300000000; 3200000000; 5000000000; 5009099390; 2000077120; 50.090553999271286; 20.001243060711445
-14013671; 268554; -97314453; 48828125; -48828125; -30517578; 3800000000; -700000000; 1000000000; 10188865661;2300000000; 3200000000; 5000000000; 5009099390; 2000077120; 50.090553999271286; 20.001243060711445
-14172363; 781250; -97570800; 6103515; -36621093; -12207031; 3800000000; -700000000; 1000000000; 10043747711;2300000000; 3200000000; 5000000000; 5009099390; 2000077120; 50.090553999271286; 20.001243060711445
-14367675; 500488; -97448730; -30517578; -30517578; -6103515; 3700000000; -700000000; 1000000000; 10071311950;2300000000; 3200000000; 5000000000; 5009099390; 2000077120; 50.090553999271286; 20.001243060711445
-13879394; 634765; -97570800; 24414062; -36621093; -18310546; 3800000000; -700000000; 1000000000; 10043747711;2300000000; 3200000000; 5000000000; 5009099390; 2000077120; 50.090553999271286; 20.001243060711445
-13903808; 634765; -97399902; -30517578; -30517578; -12207031; 3800000000; -700000000; 1000000000; 10043747711;2300000000; 3200000000; 5000000000; 5009099390; 2000077120; 50.090553999271286; 20.001243060711445
-13940429; 1000976; -97509765; -18310546; -24414062; -18310546; 3700000000; -700000000; 1000000000; 10071311950;2300000000; 3200000000; 5000000000; 5009099390; 2000077120; 50.090553999271286; 20.001243060711445
-14013671; 354003; -97387695; 73242187; -48828125; -24414062; 3800000000; -800000000; 1000000000; 10043747711;2300000000; 3200000000; 5000000000; 5009099390; 2000077120; 50.090553999271286; 20.001243060711445
-14111328; 537109; -97387695; -18310546; -36621093; -12207031; 3700000000; -700000000; 900000000; 10071311950;2300000000; 3200000000; 5000000000; 5009099390; 2000077120; 50.090553999271286; 20.001243060711445
-13549804; 756835; -97656250; 30517578; -42724609; -18310546; 3700000000; -700000000; 1000000000; 10071311950;2300000000; 3200000000; 5000000000; 5009099390; 2000077120; 50.090553999271286; 20.001243060711445
-13745117; 231933; -97583007; -18310546; -30517578; -12207031; 3700000000; -700000000; 1000000000; 10071311950;2300000000; 3200000000; 5000000000; 5009099390; 2000077120; 50.090553999271286; 20.001243060711445
-13964843; 476074; -97534179; -61035156; -24414062; -6103515; 3700000000; -700000000; 1000000000; 10071311950;2300000000; 3200000000; 5000000000; 5009099390; 2000077120; 50.090553999271286; 20.001243060711445
-13647460; 1147460; -97631835; -97656250; -12207031; 6103515; 3800000000; -800000000; 1000000000; 10188865661;2300000000; 3200000000; 5000000000; 5009099390; 2000077120; 50.090553999271286; 20.001243060711445
-13793945; 183105; -97424316; 152587890; -61035156; -36621093; 3700000000; -700000000; 1000000000; 10043747711;2300000000; 3200000000; 5000000000; 5009099390; 2000077120; 50.090553999271286; 20.001243060711445
-13293457; 683593; -97509765; -115966796; -12207031; 0; 3800000000; -800000000; 1000000000; 10188865661;2300000000; 3200000000; 5000000000; 5009099390; 2000077120; 50.090553999271286; 20.001243060711445
-14074707; 537109; -97399902; 146484375; -73242187; -30517578; 3800000000; -700000000; 1000000000; 10043747711;2300000000; 3200000000; 5000000000; 5009099390; 2000077120; 50.090553999271286; 20.001243060711445
-13818359; 781250; -97546386; -24414062; -24414062; -6103515; 3700000000; -700000000; 1000000000; 10071311950;2300000000; 3200000000; 5000000000; 5009099390; 2000077120; 50.090553999271286; 20.001243060711445
-13989257; 622558; -97387695; -42724609; -24414062; -12207031; 3700000000; -700000000; 1000000000; 10071311950;2300000000; 3200000000; 5000000000; 5009099390; 2000077120; 50.090553999271286; 20.001243060711445
-14086914; 610351; -97424316; 12207031; -42724609; -18310546; 3700000000; -700000000; 1000000000; 10071311950;2300000000; 3200000000; 5000000000; 5009099390; 2000077120; 50.090553999271286; 20.001243060711445
-14001464; 830078; -97485351; -79345703; -18310546; 0; 3700000000; -700000000; 1000000000; 10188865661;2300000000; 3200000000; 5000000000; 5009099390; 2000077120; 50.090553999271286; 20.001243060711445
-13525390; 1013183; -97570800; -128173828; -6103515; 6103515; 3700000000; -800000000; 1000000000; 10220046997;2300000000; 3200000000; 5000000000; 5009099390; 2000077120; 50.09053275520902; 20.001306830525387
-14001464; 988769; -97424316; 36621093; -48828125; -18310546; 3800000000; -700000000; 1000000000; 10043747711;2300000000; 3200000000; 5000000000; 5009099390; 2000077120; 50.09053275520902; 20.001306830525387
-13928222; 1196289; -97753906; 103759765; -61035156; -30517578; 3700000000; -800000000; 1000000000; 10220046997;2300000000; 3200000000; 5000000000; 5009099390; 2000077120; 50.09053275520902; 20.001306830525387
-14074707; -427246; -96862792; -555419921; 85449218; 73242187; 3800000000; -800000000; 1000000000; 10188865661;2300000000; 3200000000; 5000000000; 5009099390; 2000077120; 50.09053275520902; 20.001306830525387
-14123535; 500488; -97338867; -280761718; 12207031; 36621093; 3700000000; -700000000; 1000000000; 10071311950;2300000000; 3200000000; 5000000000; 5009099390; 2000077120; 50.09053275520902; 20.001306830525387
-13244628; 2258300; -97839355; -659179687; -12207031; 30517578; 3700000000; -700000000; 1000000000; 10071311950;2300000000; 3200000000; 5000000000; 5009099390; 2000077120; 50.09053275520902; 20.001306830525387
-14172363; 3356933; -97473144; 103759765; -24414062; -97656250; 3800000000; -700000000; 1000000000; 10071311950;2300000000; 3200000000; 5000000000; 5009099390; 2000077120; 50.09053275520902; 20.001306830525387
-14050292; 1489257; -97790527; 628662109; -122070312; -91552734; 3800000000; -800000000; 1000000000; 10188865661;2300000000; 3200000000; 5000000000; 5009099390; 2000077120; 50.09053275520902; 20.001306830525387
-13500976; 488281; -97399902; -146484375; -6103515; 6103515; 3800000000; -800000000; 1000000000; 10188865661;2300000000; 3200000000; 5000000000; 5009099390; 2000077120; 50.09053275520902; 20.001306830525387
-14868164; 781250; -97521972; -6103515; -54931640; -24414062; 3700000000; -700000000; 1000000000; 10071311950;2300000000; 3200000000; 5000000000; 5009099390; 2000077120; 50.09053275520902; 20.001306830525387
-13574218; 12207; -97265625; 207519531; -85449218; -42724609; 3700000000; -700000000; 1100000000; 10071311950;2300000000; 3200000000; 5000000000; 5009099390; 2000077120; 50.09053275520902; 20.001306830525387
-14184570; 769042; -97619628; -244140625; 18310546; 24414062; 3700000000; -700000000; 1100000000; 10071311950;2300000000; 3200000000; 5000000000; 5009099390; 2000077120; 50.09053275520902; 20.001306830525387
-14099121; 158691; -97619628; 85449218; -54931640; -24414062; 3700000000; -700000000; 1000000000; 10188865661;2300000000; 3200000000; 5000000000; 5009099390; 2000077120; 50.09053275520902; 20.001306830525387
-15771484; -85449; -97314453; 42724609; -48828125; -18310546; 3700000000; -700000000; 1000000000; 10071311950;2300000000; 3200000000; 5000000000; 5009099390; 2000077120; 50.09053275520902; 20.001306830525387
-13085937; -354003; -97070312; 122070312; -54931640; -30517578; 3700000000; -700000000; 1000000000; 10071311950;2300000000; 3200000000; 5000000000; 5009099390; 2000077120; 50.09053275520902; 20.001306830525387
-13659667; 1208496; -97668457; -512695312; 73242187; 67138671; 3800000000; -700000000; 1000000000; 10043747711;2300000000; 3200000000; 5000000000; 5009099390; 2000077120; 50.09053275520902; 20.001306830525387
-13964843; 317382; -97924804; 256347656; -91552734; -54931640; 3800000000; -700000000; 1000000000; 10043747711;2300000000; 3200000000; 5000000000; 5009099390; 2000077120; 50.09053275520902; 20.001306830525387
-13952636; -231933; -97033691; 67138671; -54931640; -24414062; 3800000000; -700000000; 1000000000; 10043747711;2300000000; 3200000000; 5000000000; 5009099390; 2000077120; 50.09053275520902; 20.001306830525387
-14367675; 463867; -97680664; -134277343; -18310546; 6103515; 3800000000; -700000000; 1000000000; 10043747711;2300000000; 3200000000; 5000000000; 5009099390; 2000077120; 50.09053275520902; 20.001306830525387
-14123535; 317382; -97534179; 48828125; -42724609; -18310546; 3800000000; -800000000; 1000000000; 10188865661;2300000000; 3200000000; 5000000000; 5009099390; 2000077120; 50.09053275520902; 20.001306830525387
-13281250; 695800; -97521972; -97656250; -18310546; 6103515; 3800000000; -700000000; 1000000000; 10043747711;2300000000; 3200000000; 5000000000; 5009099390; 2000077120; 50.09053275520902; 20.001306830525387
-14111328; 61035; -97497558; 109863281; -61035156; -30517578; 3800000000; -700000000; 1000000000; 10043747711;2300000000; 3200000000; 5000000000; 5009099390; 2000077120; 50.09053275520902; 20.001306830525387
-14099121; 329589; -97473144; -91552734; -12207031; 0; 3700000000; -700000000; 1100000000; 10071311950;2300000000; 3200000000; 5000000000; 5009099390; 2000077120; 50.09053275520902; 20.001306830525387
-14013671; -12207; -97790527; 103759765; -61035156; -30517578; 3700000000; -800000000; 1000000000; 10220046997;2300000000; 3200000000; 5000000000; 5009099390; 2000077120; 50.09053275520902; 20.001306830525387
-12231445; 927734; -97497558; -238037109; 6103515; 6103515; 3800000000; -700000000; 1100000000; 10043747711;2300000000; 3200000000; 5000000000; 5009099390; 2000077120; 50.09053275520902; 20.001306830525387
-16101074; 0; -97082519; 378417968; -122070312; -79345703; 3800000000; -800000000; 1000000000; 10220046997;2300000000; 3200000000; 5000000000; 5009099390; 2000077120; 50.09053275520902; 20.001306830525387
-14123535; 769042; -96826171; -201416015; 6103515; 24414062; 3800000000; -800000000; 1000000000; 10188865661;2300000000; 3200000000; 5000000000; 5009099390; 2000077120; 50.09053275520902; 20.001306830525387
-13989257; 854492; -97924804; -299072265; 18310546; 42724609; 3700000000; -700000000; 900000000; 10071311950;2300000000; 3200000000; 5000000000; 5009099390; 2000077120; 50.09053275520902; 20.001306830525387
-14086914; -683593; -97717285; 482177734; -146484375; -91552734; 3700000000; -700000000; 1100000000; 10071311950;2300000000; 3200000000; 5000000000; 5009099390; 2000077120; 50.09053275520902; 20.001306830525387
-13269042; -451660; -97521972; -231933593; 18310546; 24414062; 3700000000; -700000000; 1000000000; 10071311950;2300000000; 3200000000; 5000000000; 5009099390; 2000077120; 50.09053275520902; 20.001306830525387
-14794921; 585937; -97424316; -97656250; -12207031; 0; 3700000000; -700000000; 1000000000; 10071311950;2300000000; 3200000000; 5000000000; 5009099390; 2000077120; 50.09053275520902; 20.001306830525387
-13940429; 842285; -97668457; -36621093; -30517578; -6103515; 3800000000; -800000000; 1000000000; 10220046997;2300000000; 3200000000; 5000000000; 5009099390; 2000077120; 50.09053275520902; 20.001306830525387
-14489746; -207519; -97192382; 158691406; -67138671; -30517578; 3700000000; -800000000; 1000000000; 10220046997;2300000000; 3200000000; 5000000000; 5009099390; 2000077120; 50.09053275520902; 20.001306830525387
-13696289; 988769; -97277832; -366210937; 36621093; 42724609; 3700000000; -800000000; 1000000000; 10220046997;2300000000; 3200000000; 5000000000; 5009099390; 2000077120; 50.09053275520902; 20.001306830525387
-14379882; 195312; -97668457; 323486328; -109863281; -73242187; 3700000000; -800000000; 1000000000; 10220046997;2300000000; 3200000000; 5000000000; 5009099390; 2000077120; 50.09053275520902; 20.001306830525387
-13256835; -878906; -97473144; 54931640; -54931640; -18310546; 3700000000; -700000000; 1100000000; 10071311950;2300000000; 3200000000; 5000000000; 5009099390; 2000077120; 50.09053275520902; 20.001306830525387
-14611816; -659179; -97875976; 54931640; -54931640; -24414062; 3700000000; -800000000; 1000000000; 10220046997;2300000000; 3200000000; 5000000000; 5009099390; 2000077120; 50.09053275520902; 20.001306830525387
-14404296; 488281; -96960449; -231933593; 18310546; 18310546; 3700000000; -800000000; 1000000000; 10188865661;2300000000; 3200000000; 5000000000; 5009099390; 2000077120; 50.09053275520902; 20.001306830525387
-14392089; 48828; -97509765; -24414062; -36621093; -12207031; 3800000000; -800000000; 1000000000; 10188865661;2300000000; 3200000000; 5000000000; 5009099390; 2000077120; 50.09053275520902; 20.001306830525387
-13647460; -537109; -97656250; 201416015; -85449218; -48828125; 3700000000; -800000000; 1000000000; 10220046997;2300000000; 3200000000; 5000000000; 5009099390; 2000077120; 50.09053275520902; 20.001306830525387
-14624023; -97656; -97155761; 24414062; -42724609; -24414062; 3800000000; -700000000; 1000000000; 10043747711;2300000000; 3200000000; 5000000000; 5009099390; 2000077120; 50.09053275520902; 20.001306830525387
-13781738; 598144; -97375488; -183105468; 0; 12207031; 3700000000; -700000000; 1100000000; 10071311950;2300000000; 3200000000; 5000000000; 5009099390; 2000077120; 50.09053275520902; 20.001306830525387
-14306640; 244140; -97705078; 195312500; -79345703; -42724609; 3700000000; -700000000; 1000000000; 10071311950;2300000000; 3200000000; 5000000000; 5009099390; 2000077120; 50.09053275520902; 20.001306830525387
-13830566; -97656; -97216796; -103759765; 1550292968; 30517578; 3700000000; -700000000; 1000000000; 10071311950;2300000000; 3200000000; 5000000000; 5009099390; 2000077120; 50.09053275520902; 20.001306830525387
-13940429; 378417; -97583007; -24414062; -36621093; -12207031; 3800000000; -700000000; 1000000000; 10188865661;2300000000; 3200000000; 5000000000; 5009099390; 2000077120; 50.09053275520902; 20.001306830525387
-14025878; 903320; -97387695; -79345703; -24414062; 0; 3800000000; -800000000; 1000000000; 10188865661;2300000000; 3200000000; 5000000000; 5009099390; 2000077120; 50.09053275520902; 20.001306830525387
-14501953; 0; -97619628; 225830078; -85449218; -48828125; 3700000000; -800000000; 1000000000; 10220046997;2300000000; 3200000000; 5000000000; 5009099390; 2000077120; 50.09053275520902; 20.001306830525387
-15112304; 85449; -97436523; 24414062; -54931640; -18310546; 3700000000; -800000000; 1100000000; 10220046997;2300000000; 3200000000; 5000000000; 5009099390; 2000077120; 50.09053275520902; 20.001306830525387
-14208984; -1208496; -97302246; 274658203; -97656250; -54931640; 3800000000; -700000000; 1000000000; 10043747711;2300000000; 3200000000; 5000000000; 5009099390; 2000077120; 50.09053275520902; 20.001306830525387
-16235351; 2746582; -96801757; -860595703; 109863281; 109863281; 3700000000; -800000000; 1000000000; 10220046997;2300000000; 3200000000; 5000000000; 5009099390; 2000077120; 50.09053275520902; 20.001306830525387
-11938476; -1574707; -97827148; 457763671; -134277343; -91552734; 3800000000; -800000000; 1000000000; 10188865661;2300000000; 3200000000; 5000000000; 5009099390; 2000077120; 50.09053275520902; 20.001306830525387
-14477539; -183105; -97033691; -97656250; -18310546; 6103515; 3800000000; -700000000; 1000000000; 10043747711;2300000000; 3200000000; 5000000000; 5009099390; 2000077120; 50.09053275520902; 20.001306830525387
-14550781; 256347; -97778320; -61035156; -24414062; -6103515; 3700000000; -700000000; 1100000000; 10071311950;2300000000; 3200000000; 5000000000; 5009099390; 2000077120; 50.09053275520902; 20.001306830525387
-14086914; 12207; -97424316; 103759765; -61035156; -36621093; 3700000000; -700000000; 1000000000; 10071311950;2300000000; 3200000000; 5000000000; 5009099390; 2000077120; 50.09053275520902; 20.001306830525387
-13867187; -61035; -97509765; -79345703; -18310546; 0; 3700000000; -700000000; 1000000000; 10071311950;2300000000; 3200000000; 5000000000; 5009099390; 2000077120; 50.09053275520902; 20.001306830525387
-14233398; 48828; -97668457; -6103515; -36621093; -12207031; 3800000000; -800000000; 1000000000; 10188865661;2300000000; 3200000000; 5000000000; 5009099390; 2000077120; 50.09053275520902; 20.001306830525387
-13940429; 183105; -97412109; -67138671; -24414062; -6103515; 3800000000; -700000000; 1000000000; 10220046997;2300000000; 3200000000; 5000000000; 5009099390; 2000077120; 50.09053275520902; 20.001306830525387
-14367675; 36621; -97973632; 97656250; -42724609; -24414062; 3700000000; -700000000; 1000000000; 10071311950;2300000000; 3200000000; 5000000000; 5009099390; 2000077120; 50.09053275520902; 20.001306830525387
-13891601; -207519; -97509765; 115966796; -61035156; -30517578; 3700000000; -700000000; 1000000000; 10071311950;2300000000; 3200000000; 5000000000; 5009099390; 2000077120; 50.09053275520902; 20.001306830525387
-14038085; 195312; -97583007; -18310546; -30517578; -12207031; 3700000000; -700000000; 1000000000; 10071311950;2300000000; 3200000000; 5000000000; 5009099390; 2000077120; 50.09053275520902; 20.001306830525387
-14160156; 256347; -97460937; -36621093; -36621093; -12207031; 3800000000; -700000000; 1000000000; 10043747711;2300000000; 3200000000; 5000000000; 5009099390; 2000077120; 50.09053275520902; 20.001306830525387
-14038085; 85449; -97521972; -24414062; -30517578; -12207031; 3700000000; -700000000; 1000000000; 10071311950;2300000000; 3200000000; 5000000000; 5009099390; 2000077120; 50.09053275520902; 20.001306830525387
-14270019; 61035; -97546386; 12207031; -42724609; -18310546; 3700000000; -700000000; 1000000000; 10071311950;2300000000; 3200000000; 5000000000; 5009099390; 2000077120; 50.09053275520902; 20.001306830525387
-13928222; 85449; -97534179; -42724609; -24414062; -6103515; 3700000000; -800000000; 1000000000; 10220046997;2300000000; 3200000000; 5000000000; 5009099390; 2000077120; 50.09053275520902; 20.001306830525387
-13964843; 195312; -97521972; 12207031; -42724609; -12207031; 3800000000; -700000000; 1000000000; 10043747711;2300000000; 3200000000; 5000000000; 5009099390; 2000077120; 50.09053275520902; 20.001306830525387
-13854980; 122070; -97509765; -42724609; -30517578; -6103515; 3800000000; -700000000; 1000000000; 10043747711;2300000000; 3200000000; 5000000000; 5009099390; 2000077120; 50.09053275520902; 20.001306830525387
-14135742; 0; -97509765; -36621093; -30517578; -6103515; 3700000000; -700000000; 1000000000; 10071311950;2300000000; 3200000000; 5000000000; 5009099390; 2000077120; 50.09053275520902; 20.001306830525387
-13879394; -610351; -97485351; 115966796; -61035156; -36621093; 3800000000; -700000000; 1000000000; 10043747711;2300000000; 3200000000; 5000000000; 5009099390; 2000077120; 50.09053275520902; 20.001306830525387
-14575195; 97656; -97546386; -42724609; -24414062; -6103515; 3700000000; -700000000; 1100000000; 10071311950;2300000000; 3200000000; 5000000000; 5009099390; 2000077120; 50.09053275520902; 20.001306830525387
-13818359; 354003; -97521972; 0; -36621093; -18310546; 3800000000; -800000000; 1000000000; 10188865661;2300000000; 3200000000; 5000000000; 5009099390; 2000077120; 50.09053275520902; 20.001306830525387
-14086914; -341796; -97595214; 213623046; -85449218; -54931640; 3700000000; -700000000; 1000000000; 10071311950;2300000000; 3200000000; 5000000000; 5009099390; 2000077120; 50.09053275520902; 20.001306830525387
-13964843; 0; -97509765; -268554687; 18310546; 30517578; 3800000000; -700000000; 1100000000; 10043747711;2300000000; 3200000000; 5000000000; 5009099390; 2000077120; 50.09053275520902; 20.001306830525387
-14001464; 256347; -97973632; -18310546; -36621093; -24414062; 3800000000; -700000000; 1000000000; 10043747711;2300000000; 3200000000; 5000000000; 5009099390; 2000077120; 50.09053275520902; 20.001306830525387
-14611816; -646972; -97180175; 195312500; -79345703; -48828125; 3700000000; -800000000; 1000000000; 10220046997;2300000000; 3200000000; 5000000000; 5009099390; 2000077120; 50.09053275520902; 20.001306830525387
-15979003; 2319335; -97436523; -488281250; 67138671; 54931640; 3700000000; -800000000; 1000000000; 10220046997;2300000000; 3200000000; 5000000000; 5009099390; 2000077120; 50.09053275520902; 20.001306830525387
-14648437; -354003; -97448730; 415039062; -128173828; -79345703; 3800000000; -800000000; 1000000000; 10188865661;2300000000; 3200000000; 5000000000; 5009099390; 2000077120; 50.09053275520902; 20.001306830525387
-14013671; -622558; -97375488; -85449218; -24414062; -6103515; 3700000000; -800000000; 1000000000; 10220046997;2300000000; 3200000000; 5000000000; 5009099390; 2000077120; 50.09053275520902; 20.001306830525387
-14746093; 671386; -97375488; -170898437; 6103515; 6103515; 3800000000; -700000000; 1100000000; 10043747711;2300000000; 3200000000; 5000000000; 5009099390; 2000077120; 50.09053275520902; 20.001306830525387
-13549804; 354003; -97778320; 48828125; -48828125; -18310546; 3800000000; -700000000; 1000000000; 10043747711;2300000000; 3200000000; 5000000000; 5009099390; 2000077120; 50.09053275520902; 20.001306830525387
-14196777; -329589; -97387695; 170898437; -79345703; -24414062; 3700000000; -700000000; 1100000000; 10071311950;2300000000; 3200000000; 5000000000; 5009099390; 2000077120; 50.09053275520902; 20.001306830525387
-13562011; 146484; -97619628; -36621093; -30517578; -12207031; 3800000000; -800000000; 1000000000; 10188865661;2300000000; 3200000000; 5000000000; 5009099390; 2000077120; 50.09053275520902; 20.001306830525387
-13708496; -244140; -97436523; 79345703; -48828125; -30517578; 3700000000; -700000000; 1000000000; 10071311950;2300000000; 3200000000; 5000000000; 5009099390; 2000077120; 50.09053275520902; 20.001306830525387
-14587402; 366210; -97937011; -152587890; 0; 12207031; 3700000000; -700000000; 1100000000; 10071311950;2300000000; 3200000000; 5000000000; 5009099390; 2000077120; 50.09053275520902; 20.001306830525387
-14880371; 244140; -97607421; 238037109; -97656250; -61035156; 3700000000; -700000000; 1100000000; 10071311950;2300000000; 3200000000; 5000000000; 5009099390; 2000077120; 50.09053275520902; 20.001306830525387
-14160156; -708007; -97473144; 140380859; -73242187; -36621093; 3800000000; -700000000; 1000000000; 10043747711;2300000000; 3200000000; 5000000000; 5009099390; 2000077120; 50.09053275520902; 20.001306830525387
-14465332; -195312; -97705078; -219726562; 12207031; 24414062; 3700000000; -700000000; 1100000000; 10071311950;2300000000; 3200000000; 5000000000; 5009099390; 2000077120; 50.09053275520902; 20.001306830525387
-13317871; -183105; -97460937; 42724609; -48828125; -18310546; 3700000000; -700000000; 1000000000; 10071311950;2300000000; 3200000000; 5000000000; 5009099390; 2000077120; 50.09053275520902; 20.001306830525387
-13647460; 134277; -97570800; -48828125; -24414062; -6103515; 3700000000; -700000000; 1000000000; 10071311950;2300000000; 3200000000; 5000000000; 5009099390; 2000077120; 50.09053275520902; 20.001306830525387
-14587402; 122070; -97448730; 54931640; -54931640; -24414062; 3700000000; -700000000; 900000000; 10071311950;2300000000; 3200000000; 5000000000; 5009099390; 2000077120; 50.09053275520902; 20.001306830525387
-13879394; -36621; -97656250; -85449218; -30517578; 0; 3800000000; -800000000; 1000000000; 10188865661;2300000000; 3200000000; 5000000000; 5009099390; 2000077120; 50.09053275520902; 20.001306830525387
-13928222; 183105; -97326660; -18310546; -36621093; -6103515; 3800000000; -800000000; 1000000000; 10188865661;2300000000; 3200000000; 5000000000; 5009099390; 2000077120; 50.09053275520902; 20.001306830525387
-14196777; -402832; -97546386; 122070312; -67138671; -24414062; 3800000000; -700000000; 1100000000; 10043747711;2300000000; 3200000000; 5000000000; 5009099390; 2000077120; 50.09053275520902; 20.001306830525387
-14196777; -488281; -97351074; 6103515; -42724609; -12207031; 3800000000; -700000000; 900000000; 10043747711;2300000000; 3200000000; 5000000000; 5009099390; 2000077120; 50.09053275520902; 20.001306830525387
-14453125; 1013183; -97521972; -335693359; 36621093; 48828125; 3800000000; -800000000; 1000000000; 10220046997;2300000000; 3200000000; 5000000000; 5009099390; 2000077120; 50.09053275520902; 20.001306830525387
-13696289; 134277; -97790527; 231933593; -85449218; -48828125; 3800000000; -700000000; 1000000000; 10043747711;2300000000; 3200000000; 5000000000; 5009099390; 2000077120; 50.09053275520902; 20.001306830525387
-14318847; -268554; -97155761; -73242187; -24414062; -6103515; 3800000000; -700000000; 1100000000; 10043747711;2300000000; 3200000000; 5000000000; 5009099390; 2000077120; 50.09053275520902; 20.001306830525387
-14111328; 219726; -97595214; -97656250; -18310546; 0; 3800000000; -700000000; 1000000000; 10043747711;2300000000; 3200000000; 5000000000; 5009099390; 2000077120; 50.09053275520902; 20.001306830525387
-14111328; 256347; -97399902; 0; -36621093; -18310546; 3800000000; -700000000; 1000000000; 10043747711;2300000000; 3200000000; 5000000000; 5009099390; 2000077120; 50.09053275520902; 20.001306830525387
-14160156; -12207; -97570800; 0; -36621093; -18310546; 3700000000; -700000000; 1000000000; 10071311950;2300000000; 3200000000; 5000000000; 5009099390; 2000077120; 50.09053275520902; 20.001306830525387
-13928222; 0; -97521972; 6103515; -42724609; -18310546; 3700000000; -800000000; 1000000000; 10220046997;2300000000; 3200000000; 5000000000; 5009099390; 2000077120; 50.09053275520902; 20.001306830525387
-14123535; 903320; -97375488; -67138671; -30517578; 0; 3800000000; -700000000; 1100000000; 10043747711;2300000000; 3200000000; 5000000000; 5009099390; 2000077120; 50.09053275520902; 20.001306830525387
-17053222; 231933; -97192382; 457763671; -134277343; -97656250; 3800000000; -700000000; 1000000000; 10043747711;2300000000; 3200000000; 5000000000; 5009099390; 2000077120; 50.09053275520902; 20.001306830525387
-11389160; 183105; -97583007; -518798828; 73242187; 73242187; 3700000000; -700000000; 1000000000; 10071311950;2300000000; 3200000000; 5000000000; 5009099390; 2000077120; 50.09053275520902; 20.001306830525387
-14233398; -573730; -97607421; 225830078; -85449218; -48828125; 3700000000; -700000000; 1000000000; 10071311950;2300000000; 3200000000; 5000000000; 5009099390; 2000077120; 50.09053275520902; 20.001306830525387
-14477539; 146484; -97265625; -103759765; -18310546; 6103515; 3800000000; -800000000; 1000000000; 10188865661;2300000000; 3200000000; 5000000000; 5009099390; 2000077120; 50.09053275520902; 20.001306830525387
-14062500; 158691; -97717285; 134277343; -61035156; -30517578; 3800000000; -700000000; 1000000000; 10043747711;2300000000; 3200000000; 5000000000; 5009099390; 2000077120; 50.09053275520902; 20.001306830525387
-13977050; 219726; -97485351; 0; -42724609; -12207031; 3700000000; -800000000; 1000000000; 10043747711;2300000000; 3200000000; 5000000000; 5009099390; 2000077120; 50.09053275520902; 20.001306830525387
-14001464; -317382; -97460937; 67138671; -54931640; -24414062; 3800000000; -700000000; 1100000000; 10043747711;2300000000; 3200000000; 5000000000; 5009099390; 2000077120; 50.09053275520902; 20.001306830525387
-14636230; 158691; -97497558; -128173828; -12207031; 6103515; 3800000000; -700000000; 1000000000; 10043747711;2300000000; 3200000000; 5000000000; 5009099390; 2000077120; 50.09053275520902; 20.001306830525387
-13769531; 0; -97460937; 79345703; -48828125; -30517578; 3700000000; -800000000; 1000000000; 10220046997;2300000000; 3200000000; 5000000000; 5009099390; 2000077120; 50.09053275520902; 20.001306830525387
-13781738; 109863; -97351074; -67138671; -24414062; 0; 3700000000; -700000000; 1000000000; 10071311950;2300000000; 3200000000; 5000000000; 5009099390; 2000077120; 50.09053275520902; 20.001306830525387
-13928222; -36621; -97558593; 61035156; -48828125; -24414062; 3800000000; -700000000; 1000000000; 10043747711;2300000000; 3200000000; 5000000000; 5009099390; 2000077120; 50.09053275520902; 20.001306830525387
-14001464; 85449; -97534179; -24414062; -36621093; -6103515; 3800000000; -700000000; 1000000000; 10220046997;2300000000; 3200000000; 5000000000; 5009099390; 2000077120; 50.09053275520902; 20.001306830525387
-13952636; -48828; -97546386; 12207031; -42724609; -18310546; 3800000000; -700000000; 1100000000; 10043747711;2300000000; 3200000000; 5000000000; 5009099390; 2000077120; 50.09053275520902; 20.001306830525387
-14172363; -36621; -97485351; 18310546; -42724609; -18310546; 3800000000; -700000000; 1000000000; 10043747711;2300000000; 3200000000; 5000000000; 5009099390; 2000077120; 50.09053275520902; 20.001306830525387
-13952636; -12207; -97387695; -6103515; -42724609; -12207031; 3700000000; -700000000; 1000000000; 10071311950;2300000000; 3200000000; 5000000000; 5009099390; 2000077120; 50.09053275520902; 20.001306830525387
-14025878; 12207; -97424316; 6103515; -42724609; -12207031; 3800000000; -800000000; 1000000000; 10188865661;2300000000; 3200000000; 5000000000; 5009099390; 2000077120; 50.09053275520902; 20.001306830525387
-14038085; 280761; -97583007; -36621093; -24414062; -6103515; 3700000000; -700000000; 1100000000; 10071311950;2300000000; 3200000000; 5000000000; 5009099390; 2000077120; 50.09053275520902; 20.001306830525387
-13989257; 36621; -97558593; 54931640; -54931640; -18310546; 3800000000; -700000000; 1000000000; 10043747711;2300000000; 3200000000; 5000000000; 5009099390; 2000077120; 50.09053275520902; 20.001306830525387
-14147949; 0; -97546386; -42724609; -30517578; -6103515; 3700000000; -700000000; 1100000000; 10071311950;2300000000; 3200000000; 5000000000; 5009099390; 2000077120; 50.09053275520902; 20.001306830525387
-14025878; 12207; -97473144; -18310546; -30517578; -12207031; 3700000000; -700000000; 1000000000; 10071311950;2300000000; 3200000000; 5000000000; 5009099390; 2000077120; 50.09053275520902; 20.001306830525387
-14099121; -73242; -97546386; 36621093; -48828125; -18310546; 3800000000; -700000000; 1100000000; 10043747711;2300000000; 3200000000; 5000000000; 5009099390; 2000077120; 50.09053275520902; 20.001306830525387
-14294433; 256347; -97436523; -48828125; -30517578; -6103515; 3800000000; -700000000; 1000000000; 10043747711;2300000000; 3200000000; 5000000000; 5009099390; 2000077120; 50.0905873711148; 20.001249612705617
-13916015; -134277; -97583007; 61035156; -48828125; -24414062; 3700000000; -700000000; 1000000000; 10071311950;2300000000; 3200000000; 5000000000; 5009099390; 2000077120; 50.0905873711148; 20.001249612705617
-13891601; 378417; -97497558; -91552734; -18310546; 0; 3800000000; -700000000; 1000000000; 10043747711;2300000000; 3200000000; 5000000000; 5009099390; 2000077120; 50.0905873711148; 20.001249612705617
-13989257; 256347; -97229003; -12207031; -30517578; -18310546; 3800000000; -700000000; 1000000000; 10043747711;2300000000; 3200000000; 5000000000; 5009099390; 2000077120; 50.0905873711148; 20.001249612705617
-15759277; -622558; -97570800; 335693359; -115966796; -67138671; 3700000000; -800000000; 1000000000; 10220046997;2300000000; 3200000000; 5000000000; 5009099390; 2000077120; 50.0905873711148; 20.001249612705617
-13183593; 109863; -97375488; -225830078; 6103515; 24414062; 3700000000; -700000000; 1000000000; 10071311950;2300000000; 3200000000; 5000000000; 5009099390; 2000077120; 50.0905873711148; 20.001249612705617
-13537597; -109863; -97705078; 18310546; -42724609; -12207031; 3800000000; -700000000; 1000000000; 10043747711;2300000000; 3200000000; 5000000000; 5009099390; 2000077120; 50.0905873711148; 20.001249612705617
-14038085; -549316; -97290039; 42724609; -42724609; -30517578; 3700000000; -700000000; 1000000000; 10071311950;2300000000; 3200000000; 5000000000; 5009099390; 2000077120; 50.0905873711148; 20.001249612705617
-14184570; 549316; -97631835; -189208984; -24414062; 6103515; 3700000000; -700000000; 1000000000; 10071311950;2300000000; 3200000000; 5000000000; 5009099390; 2000077120; 50.0905775124751; 20.001267362872927
-13842773; 97656; -97412109; 109863281; -61035156; -30517578; 3800000000; -700000000; 1000000000; 10071311950;2300000000; 3200000000; 5000000000; 5009099390; 2000077120; 50.0905775124751; 20.001267362872927
-13769531; -268554; -97558593; -12207031; -30517578; -12207031; 3700000000; -700000000; 1000000000; 10071311950;2300000000; 3200000000; 5000000000; 5009099390; 2000077120; 50.0905775124751; 20.001267362872927
-14282226; -61035; -97363281; -42724609; -24414062; -6103515; 3800000000; -700000000; 1100000000; 10043747711;2300000000; 3200000000; 5000000000; 5009099390; 2000077120; 50.0905775124751; 20.001267362872927
-13903808; -219726; -97436523; -817871093; 128173828; 103759765; 3700000000; -700000000; 1000000000; 10071311950;2300000000; 3200000000; 5000000000; 5009099390; 2000077120; 50.0905775124751; 20.001267362872927
-13574218; -524902; -97253417; -152587890; -6103515; 12207031; 3700000000; -700000000; 1000000000; 10071311950;2300000000; 3200000000; 5000000000; 5009099390; 2000077120; 50.0905775124751; 20.001267362872927
-14147949; -415039; -97412109; 207519531; -79345703; -48828125; 3800000000; -800000000; 1000000000; 10188865661;2300000000; 3200000000; 5000000000; 5009099390; 2000077120; 50.0905775124751; 20.001267362872927
-13940429; 292968; -97509765; 24414062; -42724609; -12207031; 3800000000; -700000000; 1000000000; 10043747711;2300000000; 3200000000; 5000000000; 5009099390; 2000077120; 50.09056620009077; 20.001275660406385
-13952636; 317382; -97546386; 115966796; -61035156; -30517578; 3700000000; -700000000; 1000000000; 10071311950;2300000000; 3200000000; 5000000000; 5009099390; 2000077120; 50.09056620009077; 20.001275660406385
-13977050; 134277; -97497558; 24414062; -42724609; -18310546; 3800000000; -700000000; 1000000000; 10043747711;2300000000; 3200000000; 5000000000; 5009099390; 2000077120; 50.09056620009077; 20.001275660406385
-14086914; 305175; -97473144; 30517578; -42724609; -18310546; 3700000000; -700000000; 1000000000; 10071311950;2300000000; 3200000000; 5000000000; 5009099390; 2000077120; 50.09056620009077; 20.001275660406385
-14001464; 134277; -97485351; 0; -36621093; -12207031; 3800000000; -700000000; 1000000000; 10043747711;2300000000; 3200000000; 5000000000; 5009099390; 2000077120; 50.09056620009077; 20.001275660406385
-14160156; 476074; -97558593; -12207031; -36621093; -12207031; 3700000000; -800000000; 900000000; 10220046997;2300000000; 3200000000; 5000000000; 5009099390; 2000077120; 50.09056620009077; 20.001275660406385
-13989257; 207519; -97485351; 54931640; -54931640; -18310546; 3700000000; -700000000; 1000000000; 10071311950;2300000000; 3200000000; 5000000000; 5009099390; 2000077120; 50.09056620009077; 20.001275660406385
-14099121; 341796; -97534179; -30517578; -36621093; -12207031; 3700000000; -800000000; 1100000000; 10220046997;2300000000; 3200000000; 5000000000; 5009099390; 2000077120; 50.09056620009077; 20.001275660406385
-13977050; 146484; -97546386; 24414062; -36621093; -12207031; 3800000000; -700000000; 1000000000; 10043747711;2300000000; 3200000000; 5000000000; 5009099390; 2000077120; 50.0905579283991; 20.00128765844776
-13928222; 170898; -97448730; -18310546; -36621093; -6103515; 3800000000; -700000000; 1000000000; 10043747711;2300000000; 3200000000; 5000000000; 5009099390; 2000077120; 50.0905579283991; 20.00128765844776
-14001464; 219726; -97534179; -6103515; -36621093; -12207031; 3700000000; -800000000; 1000000000; 10220046997;2300000000; 3200000000; 5000000000; 5009099390; 2000077120; 50.0905579283991; 20.00128765844776
-14025878; 366210; -97534179; -18310546; -36621093; -12207031; 3800000000; -700000000; 1000000000; 10043747711;2300000000; 3200000000; 5000000000; 5009099390; 2000077120; 50.0905579283991; 20.00128765844776
-13720703; 48828; -97546386; 73242187; -54931640; -18310546; 3800000000; -700000000; 1000000000; 10043747711;2300000000; 3200000000; 5000000000; 5009099390; 2000077120; 50.0905579283991; 20.00128765844776
-14086914; 378417; -97509765; -85449218; -12207031; 0; 3700000000; -700000000; 1000000000; 10071311950;2300000000; 3200000000; 5000000000; 5009099390; 2000077120; 50.0905579283991; 20.00128765844776
-14099121; 451660; -97558593; 18310546; -48828125; -12207031; 3700000000; -700000000; 1000000000; 10071311950;2300000000; 3200000000; 5000000000; 5009099390; 2000077120; 50.0905579283991; 20.00128765844776
-13989257; 292968; -97509765; 6103515; -42724609; -12207031; 3700000000; -700000000; 1000000000; 10071311950;2300000000; 3200000000; 5000000000; 5009099390; 2000077120; 50.0905579283991; 20.00128765844776
-14038085; 244140; -97497558; 12207031; -42724609; -18310546; 3700000000; -700000000; 1000000000; 10071311950;2300000000; 3200000000; 5000000000; 5009099390; 2000077120; 50.09054229190706; 20.00129936628621
-14013671; 268554; -97448730; -48828125; -30517578; -6103515; 3800000000; -700000000; 1000000000; 10043747711;2300000000; 3200000000; 5000000000; 5009099390; 2000077120; 50.09054229190706; 20.00129936628621
-14001464; 354003; -97485351; 30517578; -42724609; -18310546; 3700000000; -800000000; 1000000000; 10220046997;2300000000; 3200000000; 5000000000; 5009099390; 2000077120; 50.09054229190706; 20.00129936628621
-14074707; 219726; -97509765; -12207031; -30517578; -12207031; 3700000000; -700000000; 1000000000; 10071311950;2300000000; 3200000000; 5000000000; 5009099390; 2000077120; 50.09054229190706; 20.00129936628621
-13757324; 85449; -97607421; -24414062; -30517578; -12207031; 3700000000; -700000000; 1000000000; 10071311950;2300000000; 3200000000; 5000000000; 5009099390; 2000077120; 50.09054229190706; 20.00129936628621
-14123535; 341796; -97546386; -24414062; -30517578; -18310546; 3700000000; -800000000; 1000000000; 10220046997;2300000000; 3200000000; 5000000000; 5009099390; 2000077120; 50.09054229190706; 20.00129936628621
-14184570; 292968; -97546386; -24414062; -30517578; -18310546; 3700000000; -700000000; 1000000000; 10071311950;2300000000; 3200000000; 5000000000; 5009099390; 2000077120; 50.09054229190706; 20.00129936628621
-13745117; 390625; -97558593; -18310546; -30517578; -12207031; 3800000000; -800000000; 1000000000; 10188865661;2300000000; 3200000000; 5000000000; 5009099390; 2000077120; 50.09053386105343; 20.001308157339217
-14331054; 109863; -97338867; 48828125; -42724609; -24414062; 3800000000; -800000000; 1000000000; 10188865661;2300000000; 3200000000; 5000000000; 5009099390; 2000077120; 50.09053386105343; 20.001308157339217
-13525390; 280761; -97595214; -79345703; -12207031; 0; 3800000000; -800000000; 1000000000; 10188865661;2300000000; 3200000000; 5000000000; 5009099390; 2000077120; 50.09053386105343; 20.001308157339217
-13928222; 781250; -97692871; 54931640; -54931640; -30517578; 3700000000; -800000000; 1000000000; 10071311950;2300000000; 3200000000; 5000000000; 5009099390; 2000077120; 50.09053386105343; 20.001308157339217
-14343261; 24414; -97241210; -48828125; -24414062; -6103515; 3800000000; -800000000; 1000000000; 10188865661;2300000000; 3200000000; 5000000000; 5009099390; 2000077120; 50.09053386105343; 20.001308157339217
-12976074; 1342773; -97717285; -201416015; 0; 18310546; 3700000000; -700000000; 1000000000; 10071311950;2300000000; 3200000000; 5000000000; 5009099390; 2000077120; 50.09053386105343; 20.001308157339217
-13305664; -964355; -97363281; 292968750; -103759765; -61035156; 3700000000; -700000000; 1100000000; 10071311950;2300000000; 3200000000; 5000000000; 5009099390; 2000077120; 50.09053386105343; 20.001308157339217
-14184570; -109863; -97326660; -256347656; 12207031; 24414062; 3700000000; -700000000; 1000000000; 10071311950;2300000000; 3200000000; 5000000000; 5009099390; 2000077120; 50.09053386105343; 20.001308157339217
-14941406; 1379394; -97912597; -134277343; -12207031; 6103515; 3700000000; -700000000; 1000000000; 10071311950;2300000000; 3200000000; 5000000000; 5009099390; 2000077120; 50.09053386105343; 20.001308157339217
-14074707; -378417; -97448730; 396728515; -91552734; -48828125; 3700000000; -700000000; 1000000000; 10188865661;2300000000; 3200000000; 5000000000; 5009099390; 2000077120; 50.09053386105343; 20.001308157339217
-14074707; 634765; -97497558; -280761718; 24414062; 30517578; 3700000000; -700000000; 1000000000; 10071311950;2300000000; 3200000000; 5000000000; 5009099390; 2000077120; 50.09053386105343; 20.001308157339217
-14074707; 732421; -97619628; 134277343; -67138671; -36621093; 3800000000; -700000000; 1000000000; 10043747711;2300000000; 3200000000; 5000000000; 5009099390; 2000077120; 50.09053386105343; 20.001308157339217
-13952636; 463867; -97460937; -42724609; -24414062; -6103515; 3700000000; -700000000; 1000000000; 10071311950;2300000000; 3200000000; 5000000000; 5009099390; 2000077120; 50.09053386105343; 20.001308157339217
-14086914; 793457; -97644042; -128173828; -6103515; 12207031; 3700000000; -700000000; 1000000000; 10071311950;2300000000; 3200000000; 5000000000; 5009099390; 2000077120; 50.09053386105343; 20.001308157339217
-13854980; -170898; -97399902; -30517578; -30517578; -12207031; 3700000000; -700000000; 1000000000; 10071311950;2300000000; 3200000000; 5000000000; 5009099390; 2000077120; 50.09053386105343; 20.001308157339217
-14025878; 463867; -97583007; -12207031; -36621093; -6103515; 3700000000; -700000000; 1000000000; 10071311950;2300000000; 3200000000; 5000000000; 5009099390; 2000077120; 50.09053386105343; 20.001308157339217
-13659667; 683593; -97570800; -30517578; -30517578; -18310546; 3800000000; -700000000; 1000000000; 10043747711;2300000000; 3200000000; 5000000000; 5009099390; 2000077120; 50.09053386105343; 20.001308157339217
-13317871; 0; -97265625; -97656250; -18310546; 0; 3700000000; -800000000; 1100000000; 10220046997;2300000000; 3200000000; 5000000000; 5009099390; 2000077120; 50.09053386105343; 20.001308157339217
-14245605; 1757812; -97631835; -183105468; 0; 12207031; 3700000000; -700000000; 1100000000; 10071311950;2300000000; 3200000000; 5000000000; 5009099390; 2000077120; 50.09053386105343; 20.001308157339217
-14868164; -476074; -97253417; 421142578; -128173828; -73242187; 3800000000; -700000000; 1000000000; 10043747711;2300000000; 3200000000; 5000000000; 5009099390; 2000077120; 50.09053386105343; 20.001308157339217
-13586425; -317382; -97253417; -390625000; 42724609; 48828125; 3700000000; -700000000; 1000000000; 10071311950;2300000000; 3200000000; 5000000000; 5009099390; 2000077120; 50.09053386105343; 20.001308157339217
-14367675; 1293945; -97558593; 97656250; -54931640; -24414062; 3700000000; -700000000; 1000000000; 10220046997;2300000000; 3200000000; 5000000000; 5009099390; 2000077120; 50.09053386105343; 20.001308157339217
-13317871; 366210; -97656250; 6103515; -42724609; -6103515; 3800000000; -700000000; 1000000000; 10043747711;2300000000; 3200000000; 5000000000; 5009099390; 2000077120; 50.09053386105343; 20.001308157339217
-14147949; -85449; -97399902; -6103515; -30517578; -18310546; 3800000000; -700000000; 1000000000; 10043747711;2300000000; 3200000000; 5000000000; 5009099390; 2000077120; 50.09053386105343; 20.001308157339217
-14013671; 512695; -97717285; 30517578; -48828125; -18310546; 3700000000; -700000000; 1100000000; 10071311950;2300000000; 3200000000; 5000000000; 5009099390; 2000077120; 50.090528612472326; 20.001321840938783
-14025878; -195312; -97290039; -67138671; -24414062; -6103515; 3800000000; -800000000; 1000000000; 10188865661;2300000000; 3200000000; 5000000000; 5009099390; 2000077120; 50.090528612472326; 20.001321840938783
-14074707; 708007; -97509765; -115966796; -18310546; 6103515; 3700000000; -700000000; 1000000000; 10071311950;2300000000; 3200000000; 5000000000; 5009099390; 2000077120; 50.090528612472326; 20.001321840938783
-13903808; 183105; -97570800; 122070312; -61035156; -30517578; 3700000000; -700000000; 1000000000; 10071311950;2300000000; 3200000000; 5000000000; 5009099390; 2000077120; 50.090528612472326; 20.001321840938783
-14282226; 524902; -97534179; -79345703; -30517578; 0; 3700000000; -700000000; 1000000000; 10071311950;2300000000; 3200000000; 5000000000; 5009099390; 2000077120; 50.090528612472326; 20.001321840938783
-13757324; 183105; -97473144; -6103515; -36621093; -12207031; 3700000000; -700000000; 1000000000; 10071311950;2300000000; 3200000000; 5000000000; 5009099390; 2000077120; 50.090528612472326; 20.001321840938783
-14123535; 708007; -97644042; -91552734; -18310546; 0; 3800000000; -700000000; 1000000000; 10043747711;2300000000; 3200000000; 5000000000; 5009099390; 2000077120; 50.090528612472326; 20.001321840938783
-14636230; 964355; -97668457; 109863281; -61035156; -30517578; 3800000000; -800000000; 1000000000; 10188865661;2300000000; 3200000000; 5000000000; 5009099390; 2000077120; 50.090528612472326; 20.001321840938783
-14526367; -329589; -97424316; 12207031; -42724609; -12207031; 3700000000; -800000000; 1000000000; 10220046997;2300000000; 3200000000; 5000000000; 5009099390; 2000077120; 50.090528612472326; 20.001321840938783
-13659667; -378417; -97485351; -67138671; -30517578; -12207031; 3700000000; -800000000; 1000000000; 10220046997;2300000000; 3200000000; 5000000000; 5009099390; 2000077120; 50.090528612472326; 20.001321840938783
-12268066; -329589; -97619628; 158691406; -67138671; -42724609; 3800000000; -700000000; 1000000000; 10043747711;2300000000; 3200000000; 5000000000; 5009099390; 2000077120; 50.090528612472326; 20.001321840938783
-14453125; 1708984; -97583007; -286865234; 18310546; 30517578; 3700000000; -700000000; 1000000000; 10071311950;2300000000; 3200000000; 5000000000; 5009099390; 2000077120; 50.090528612472326; 20.001321840938783
-13098144; -1110839; -97412109; 329589843; -103759765; -67138671; 3800000000; -800000000; 1000000000; 10188865661;2300000000; 3200000000; 5000000000; 5009099390; 2000077120; 50.090528612472326; 20.001321840938783
-14440917; 109863; -97290039; -286865234; 24414062; 24414062; 3700000000; -800000000; 1000000000; 10220046997;2300000000; 3200000000; 5000000000; 5009099390; 2000077120; 50.090528612472326; 20.001321840938783
-13647460; 1391601; -97998046; 128173828; -67138671; -30517578; 3800000000; -800000000; 1000000000; 10188865661;2300000000; 3200000000; 5000000000; 5009099390; 2000077120; 50.090528612472326; 20.001321840938783
-12792968; -1440429; -96997070; 299072265; -97656250; 0; 3700000000; -700000000; 1000000000; 10071311950;2300000000; 3200000000; 5000000000; 5009099390; 2000077120; 50.090542533689515; 20.001310381858183
-15319824; 1440429; -97631835; -73242187; -24414062; 0; 3700000000; -700000000; 1000000000; 10071311950;2300000000; 3200000000; 5000000000; 5009099390; 2000077120; 50.090542533689515; 20.001310381858183
-14282226; 48828; -97180175; 170898437; -79345703; -36621093; 3800000000; -700000000; 1000000000; 10043747711;2300000000; 3200000000; 5000000000; 5009099390; 2000077120; 50.090542533689515; 20.001310381858183
-13513183; 329589; -97668457; -158691406; -6103515; 6103515; 3800000000; -700000000; 1000000000; 10043747711;2300000000; 3200000000; 5000000000; 5009099390; 2000077120; 50.090542533689515; 20.001310381858183
-14733886; -134277; -97473144; 73242187; -54931640; -18310546; 3700000000; -700000000; 1100000000; 10071311950;2300000000; 3200000000; 5000000000; 5009099390; 2000077120; 50.090542533689515; 20.001310381858183
-15539550; 549316; -97924804; -85449218; -18310546; -12207031; 3800000000; -700000000; 1000000000; 10043747711;2300000000; 3200000000; 5000000000; 5009099390; 2000077120; 50.090542533689515; 20.001310381858183
-14819335; 659179; -97619628; 207519531; -79345703; -48828125; 3800000000; -700000000; 1100000000; 10043747711;2300000000; 3200000000; 5000000000; 5009099390; 2000077120; 50.090542533689515; 20.001310381858183
-14099121; 927734; -97387695; -189208984; 6103515; 18310546; 3800000000; -700000000; 1000000000; 10043747711;2300000000; 3200000000; 5000000000; 5009099390; 2000077120; 50.090542533689515; 20.001310381858183
-14257812; -207519; -97521972; 219726562; -79345703; -54931640; 3800000000; -700000000; 1000000000; 10043747711;2300000000; 3200000000; 5000000000; 5009099390; 2000077120; 50.090542533689515; 20.001310381858183
-14270019; 500488; -97497558; -152587890; 0; 6103515; 3700000000; -700000000; 1100000000; 10071311950;2300000000; 3200000000; 5000000000; 5009099390; 2000077120; 50.090542533689515; 20.001310381858183
-13891601; -207519; -97631835; 128173828; -67138671; -30517578; 3800000000; -700000000; 1000000000; 10043747711;2300000000; 3200000000; 5000000000; 5009099390; 2000077120; 50.090542533689515; 20.001310381858183
-14587402; 1416015; -97509765; -213623046; 6103515; 18310546; 3700000000; -700000000; 1000000000; 10071311950;2300000000; 3200000000; 5000000000; 5009099390; 2000077120; 50.090542533689515; 20.001310381858183
-14343261; -36621; -97631835; 317382812; -109863281; -61035156; 3800000000; -800000000; 1100000000; 10188865661;2300000000; 3200000000; 5000000000; 5009099390; 2000077120; 50.090542533689515; 20.001310381858183
-14270019; -866699; -96862792; 73242187; -48828125; -18310546; 3700000000; -700000000; 1000000000; 10071311950;2300000000; 3200000000; 5000000000; 5009099390; 2000077120; 50.090542533689515; 20.001310381858183
-14697265; 2868652; -97778320; -665283203; 91552734; 85449218; 3800000000; -800000000; 1000000000; 10071311950;2300000000; 3200000000; 5000000000; 5009099390; 2000077120; 50.090542533689515; 20.001310381858183
-14794921; 1025390; -97790527; 646972656; -170898437; -109863281; 3700000000; -800000000; 1000000000; 10220046997;2300000000; 3200000000; 5000000000; 5009099390; 2000077120; 50.090542533689515; 20.001310381858183
-13513183; -61035; -97436523; -439453125; 54931640; 54931640; 3700000000; -700000000; 1000000000; 10071311950;2300000000; 3200000000; 5000000000; 5009099390; 2000077120; 50.0905360249744; 20.001325858388725
-13867187; 439453; -97509765; 48828125; -48828125; -24414062; 3800000000; -700000000; 1000000000; 10043747711;2300000000; 3200000000; 5000000000; 5009099390; 2000077120; 50.0905360249744; 20.001325858388725
-14270019; 85449; -97424316; -79345703; -18310546; -6103515; 3800000000; -700000000; 1000000000; 10043747711;2300000000; 3200000000; 5000000000; 5009099390; 2000077120; 50.0905360249744; 20.001325858388725
-14147949; 280761; -97570800; 18310546; -42724609; -12207031; 3700000000; -700000000; 1000000000; 10071311950;2300000000; 3200000000; 5000000000; 5009099390; 2000077120; 50.0905360249744; 20.001325858388725
-13842773; 97656; -97302246; 6103515; -36621093; -18310546; 3700000000; -700000000; 1000000000; 10220046997;2300000000; 3200000000; 5000000000; 5009099390; 2000077120; 50.0905360249744; 20.001325858388725
-15136718; 683593; -97631835; 317382812; -97656250; -67138671; 3800000000; -700000000; 1000000000; 10043747711;2300000000; 3200000000; 5000000000; 5009099390; 2000077120; 50.0905360249744; 20.001325858388725
-13195800; -634765; -97326660; -30517578; -30517578; -12207031; 3800000000; -700000000; 1000000000; 10043747711;2300000000; 3200000000; 5000000000; 5009099390; 2000077120; 50.0905360249744; 20.001325858388725
-14123535; 720214; -97766113; -164794921; 0; 12207031; 3700000000; -700000000; 1000000000; 10071311950;2300000000; 3200000000; 5000000000; 5009099390; 2000077120; 50.0905360249744; 20.001325858388725
-13793945; 659179; -97546386; 6103515; -36621093; -18310546; 3700000000; -800000000; 1000000000; 10220046997;2300000000; 3200000000; 5000000000; 5009099390; 2000077120; 50.090527754207955; 20.001335844545284
-13854980; 183105; -97412109; -6103515; -36621093; -12207031; 3700000000; -700000000; 1000000000; 10071311950;2300000000; 3200000000; 5000000000; 5009099390; 2000077120; 50.090527754207955; 20.001335844545284
-14282226; 36621; -97546386; 6103515; -42724609; -12207031; 3800000000; -700000000; 1000000000; 10043747711;2300000000; 3200000000; 5000000000; 5009099390; 2000077120; 50.090527754207955; 20.001335844545284
-13793945; 524902; -97558593; -103759765; -18310546; 6103515; 3700000000; -700000000; 1000000000; 10071311950;2300000000; 3200000000; 5000000000; 5009099390; 2000077120; 50.090527754207955; 20.001335844545284
-13684082; 366210; -97570800; 42724609; -48828125; -18310546; 3800000000; -700000000; 1000000000; 10043747711;2300000000; 3200000000; 5000000000; 5009099390; 2000077120; 50.090527754207955; 20.001335844545284
-13928222; 146484; -97436523; -36621093; -36621093; -6103515; 3700000000; -700000000; 1000000000; 10071311950;2300000000; 3200000000; 5000000000; 5009099390; 2000077120; 50.090527754207955; 20.001335844545284
-14196777; 195312; -97460937; 48828125; -48828125; -24414062; 3700000000; -700000000; 1000000000; 10071311950;2300000000; 3200000000; 5000000000; 5009099390; 2000077120; 50.090527754207955; 20.001335844545284
-13854980; 244140; -97485351; -67138671; -24414062; 0; 3700000000; -700000000; 1000000000; 10071311950;2300000000; 3200000000; 5000000000; 5009099390; 2000077120; 50.090527754207955; 20.001335844545284
-14013671; 366210; -97509765; 6103515; -36621093; -12207031; 3800000000; -800000000; 1000000000; 10188865661;2300000000; 3200000000; 5000000000; 5009099390; 2000077120; 50.090527754207955; 20.001335844545284
-14160156; 219726; -97412109; 18310546; -36621093; -18310546; 3800000000; -700000000; 1000000000; 10043747711;2300000000; 3200000000; 5000000000; 5009099390; 2000077120; 50.090527754207955; 20.001335844545284
-13952636; 292968; -97558593; -36621093; -30517578; -6103515; 3800000000; -700000000; 1000000000; 10043747711;2300000000; 3200000000; 5000000000; 5009099390; 2000077120; 50.090527754207955; 20.001335844545284
-14306640; 415039; -97509765; -12207031; -36621093; -6103515; 3700000000; -700000000; 1000000000; 10071311950;2300000000; 3200000000; 5000000000; 5009099390; 2000077120; 50.090527754207955; 20.001335844545284
-13879394; 207519; -97375488; -85449218; -18310546; 6103515; 3800000000; -700000000; 1000000000; 10043747711;2300000000; 3200000000; 5000000000; 5009099390; 2000077120; 50.090527754207955; 20.001335844545284
-13940429; 427246; -97534179; -6103515; -36621093; -18310546; 3700000000; -700000000; 1000000000; 10071311950;2300000000; 3200000000; 5000000000; 5009099390; 2000077120; 50.090527754207955; 20.001335844545284
-13964843; 85449; -97412109; 48828125; -48828125; -24414062; 3800000000; -700000000; 1000000000; 10043747711;2300000000; 3200000000; 5000000000; 5009099390; 2000077120; 50.090527754207955; 20.001335844545284
-14306640; 305175; -97509765; -48828125; -24414062; -6103515; 3800000000; -700000000; 1000000000; 10043747711;2300000000; 3200000000; 5000000000; 5009099390; 2000077120; 50.090527754207955; 20.001335844545284
-13928222; 195312; -97558593; 6103515; -42724609; -12207031; 3800000000; -700000000; 1000000000; 10043747711;2300000000; 3200000000; 5000000000; 5009099390; 2000077120; 50.090527754207955; 20.001335844545284
-14062500; 158691; -97436523; -30517578; -30517578; -6103515; 3700000000; -700000000; 1000000000; 10071311950;2300000000; 3200000000; 5000000000; 5009099390; 2000077120; 50.090527754207955; 20.001335844545284
-13854980; 268554; -97546386; 0; -42724609; -12207031; 3700000000; -700000000; 1000000000; 10071311950;2300000000; 3200000000; 5000000000; 5009099390; 2000077120; 50.090527754207955; 20.001335844545284
-14172363; 292968; -97460937; -12207031; -30517578; -12207031; 3800000000; -800000000; 1000000000; 10188865661;2300000000; 3200000000; 5000000000; 5009099390; 2000077120; 50.090527754207955; 20.001335844545284
-13830566; 415039; -97595214; -36621093; -30517578; -6103515; 3800000000; -800000000; 1000000000; 10188865661;2300000000; 3200000000; 5000000000; 5009099390; 2000077120; 50.090527754207955; 20.001335844545284
-14099121; 195312; -97473144; 54931640; -48828125; -24414062; 3800000000; -800000000; 1000000000; 10071311950;2300000000; 3200000000; 5000000000; 5009099390; 2000077120; 50.090527754207955; 20.001335844545284
-13696289; 97656; -97595214; -6103515; -42724609; -12207031; 3700000000; -800000000; 1000000000; 10220046997;2300000000; 3200000000; 5000000000; 5009099390; 2000077120; 50.090527754207955; 20.001335844545284
-14282226; 256347; -97460937; -18310546; -30517578; -12207031; 3700000000; -700000000; 1000000000; 10071311950;2300000000; 3200000000; 5000000000; 5009099390; 2000077120; 50.09054201619791; 20.001314725418457
-13867187; 524902; -97497558; -30517578; -30517578; -6103515; 3800000000; -800000000; 1000000000; 10188865661;2300000000; 3200000000; 5000000000; 5009099390; 2000077120; 50.09054201619791; 20.001314725418457
-13940429; 36621; -97473144; 61035156; -54931640; -24414062; 3800000000; -700000000; 1100000000; 10043747711;2300000000; 3200000000; 5000000000; 5009099390; 2000077120; 50.09054201619791; 20.001314725418457
-13732910; 195312; -97570800; -30517578; -30517578; -12207031; 3800000000; -700000000; 1000000000; 10043747711;2300000000; 3200000000; 5000000000; 5009099390; 2000077120; 50.09054201619791; 20.001314725418457
-14367675; 512695; -97460937; -42724609; -24414062; -6103515; 3800000000; -700000000; 1000000000; 10043747711;2300000000; 3200000000; 5000000000; 5009099390; 2000077120; 50.09054201619791; 20.001314725418457
-14001464; 207519; -97460937; 48828125; -48828125; -18310546; 3800000000; -700000000; 1000000000; 10188865661;2300000000; 3200000000; 5000000000; 5009099390; 2000077120; 50.09054201619791; 20.001314725418457
-13732910; 109863; -97546386; -48828125; -24414062; -6103515; 3800000000; -700000000; 1000000000; 10043747711;2300000000; 3200000000; 5000000000; 5009099390; 2000077120; 50.09054201619791; 20.001314725418457
-14050292; 512695; -97546386; -24414062; -24414062; -12207031; 3800000000; -700000000; 1000000000; 10043747711;2300000000; 3200000000; 5000000000; 5009099390; 2000077120; 50.09054201619791; 20.001314725418457
-14013671; 170898; -97497558; 42724609; -48828125; -18310546; 3700000000; -700000000; 1000000000; 10071311950;2300000000; 3200000000; 5000000000; 5009099390; 2000077120; 50.090551599562744; 20.001295658321137
-14086914; 292968; -97399902; -42724609; -30517578; -6103515; 3700000000; -700000000; 1000000000; 10071311950;2300000000; 3200000000; 5000000000; 5009099390; 2000077120; 50.090551599562744; 20.001295658321137
-13928222; 317382; -97558593; 12207031; -36621093; -12207031; 3700000000; -700000000; 1000000000; 10071311950;2300000000; 3200000000; 5000000000; 5009099390; 2000077120; 50.090551599562744; 20.001295658321137
-13928222; 122070; -97448730; -30517578; -30517578; -12207031; 3800000000; -800000000; 1000000000; 10188865661;2300000000; 3200000000; 5000000000; 5009099390; 2000077120; 50.090551599562744; 20.001295658321137
-13916015; 366210; -97583007; 0; -42724609; -12207031; 3800000000; -700000000; 1000000000; 10043747711;2300000000; 3200000000; 5000000000; 5009099390; 2000077120; 50.090551599562744; 20.001295658321137
-14160156; 451660; -97521972; -30517578; -30517578; -6103515; 3800000000; -700000000; 1000000000; 10043747711;2300000000; 3200000000; 5000000000; 5009099390; 2000077120; 50.090551599562744; 20.001295658321137
-14147949; 366210; -97546386; 6103515; -42724609; -12207031; 3700000000; -700000000; 1000000000; 10071311950;2300000000; 3200000000; 5000000000; 5009099390; 2000077120; 50.090551599562744; 20.001295658321137
-14001464; 292968; -97485351; -18310546; -30517578; -6103515; 3800000000; -700000000; 1000000000; 10043747711;2300000000; 3200000000; 5000000000; 5009099390; 2000077120; 50.090564454085474; 20.001280793231743
-13916015; 195312; -97595214; 30517578; -42724609; -18310546; 3800000000; -700000000; 1000000000; 10043747711;2300000000; 3200000000; 5000000000; 5009099390; 2000077120; 50.090564454085474; 20.001280793231743
-14416503; 561523; -97534179; -42724609; -30517578; -6103515; 3800000000; -700000000; 1100000000; 10043747711;2300000000; 3200000000; 5000000000; 5009099390; 2000077120; 50.090564454085474; 20.001280793231743
-14245605; 219726; -97460937; 18310546; -42724609; -18310546; 3700000000; -700000000; 1000000000; 10071311950;2300000000; 3200000000; 5000000000; 5009099390; 2000077120; 50.090564454085474; 20.001280793231743
-14013671; 244140; -97473144; -36621093; -24414062; -12207031; 3700000000; -700000000; 1000000000; 10071311950;2300000000; 3200000000; 5000000000; 5009099390; 2000077120; 50.090564454085474; 20.001280793231743
-14160156; 292968; -97436523; -6103515; -36621093; -12207031; 3800000000; -700000000; 1000000000; 10043747711;2300000000; 3200000000; 5000000000; 5009099390; 2000077120; 50.090564454085474; 20.001280793231743
-13842773; 451660; -97521972; -30517578; -36621093; -6103515; 3800000000; -700000000; 1000000000; 10043747711;2300000000; 3200000000; 5000000000; 5009099390; 2000077120; 50.090564454085474; 20.001280793231743
-14001464; 183105; -97460937; 18310546; -42724609; -18310546; 3700000000; -700000000; 1200000000; 10071311950;2300000000; 3200000000; 5000000000; 5009099390; 2000077120; 50.090564454085474; 20.001280793231743
-13940429; 415039; -97558593; -61035156; -24414062; -6103515; 3800000000; -800000000; 1000000000; 10188865661;2300000000; 3200000000; 5000000000; 5009099390; 2000077120; 50.090576360982716; 20.001266889891614
-14038085; 378417; -97521972; 6103515; -36621093; -18310546; 3700000000; -700000000; 1000000000; 10071311950;2300000000; 3200000000; 5000000000; 5009099390; 2000077120; 50.090576360982716; 20.001266889891614
-14147949; -24414; -97448730; 18310546; -42724609; -18310546; 3700000000; -700000000; 1000000000; 10071311950;2300000000; 3200000000; 5000000000; 5009099390; 2000077120; 50.090576360982716; 20.001266889891614
-14233398; 292968; -97521972; -24414062; -30517578; -6103515; 3800000000; -700000000; 1100000000; 10043747711;2300000000; 3200000000; 5000000000; 5009099390; 2000077120; 50.090576360982716; 20.001266889891614
-13818359; 292968; -97570800; 6103515; -42724609; -12207031; 3700000000; -700000000; 1000000000; 10071311950;2300000000; 3200000000; 5000000000; 5009099390; 2000077120; 50.090576360982716; 20.001266889891614
-14111328; 231933; -97473144; 12207031; -42724609; -12207031; 3700000000; -700000000; 1000000000; 10071311950;2300000000; 3200000000; 5000000000; 5009099390; 2000077120; 50.090576360982716; 20.001266889891614
-13964843; 231933; -97460937; -6103515; -36621093; -18310546; 3700000000; -700000000; 1000000000; 10071311950;2300000000; 3200000000; 5000000000; 5009099390; 2000077120; 50.090576360982716; 20.001266889891614
-14001464; 134277; -97399902; 0; -42724609; -12207031; 3800000000; -700000000; 1000000000; 10043747711;2300000000; 3200000000; 5000000000; 5009099390; 2000077120; 50.090576360982716; 20.001266889891614
-14062500; 488281; -97509765; -61035156; -24414062; -6103515; 3800000000; -700000000; 1000000000; 10043747711;2300000000; 3200000000; 5000000000; 5009099390; 2000077120; 50.090576360982716; 20.001266889891614
-14099121; 256347; -97570800; 48828125; -48828125; -18310546; 3800000000; -700000000; 900000000; 10043747711;2300000000; 3200000000; 5000000000; 5009099390; 2000077120; 50.090576360982716; 20.001266889891614
-13989257; 146484; -97436523; -24414062; -36621093; -6103515; 3800000000; -700000000; 1000000000; 10043747711;2300000000; 3200000000; 5000000000; 5009099390; 2000077120; 50.090576360982716; 20.001266889891614
-13952636; 500488; -97619628; -12207031; -36621093; -12207031; 3800000000; -700000000; 1000000000; 10043747711;2300000000; 3200000000; 5000000000; 5009099390; 2000077120; 50.090576360982716; 20.001266889891614
-14038085; 268554; -97485351; -1550292968; -36621093; -12207031; 3800000000; -700000000; 1000000000; 10043747711;2300000000; 3200000000; 5000000000; 5009099390; 2000077120; 50.090576360982716; 20.001266889891614
-13818359; 183105; -97558593; 0; -42724609; -12207031; 3800000000; -700000000; 1100000000; 10043747711;2300000000; 3200000000; 5000000000; 5009099390; 2000077120; 50.090576360982716; 20.001266889891614
-14074707; 329589; -97521972; -36621093; -30517578; -12207031; 3800000000; -700000000; 1100000000; 10043747711;2300000000; 3200000000; 5000000000; 5009099390; 2000077120; 50.090576360982716; 20.001266889891614
-14074707; 366210; -97497558; -6103515; -36621093; -12207031; 3800000000; -700000000; 1000000000; 10043747711;2300000000; 3200000000; 5000000000; 5009099390; 2000077120; 50.090576360982716; 20.001266889891614
-14086914; 231933; -97460937; 0; -36621093; -12207031; 3800000000; -700000000; 1000000000; 10043747711;2300000000; 3200000000; 5000000000; 5009099390; 2000077120; 50.090576360982716; 20.001266889891614
-14062500; 183105; -97558593; 24414062; -42724609; -18310546; 3700000000; -700000000; 1100000000; 10071311950;2300000000; 3200000000; 5000000000; 5009099390; 2000077120; 50.090576360982716; 20.001266889891614
-13940429; 268554; -97521972; -54931640; -24414062; -6103515; 3700000000; -700000000; 1100000000; 10071311950;2300000000; 3200000000; 5000000000; 5009099390; 2000077120; 50.090576360982716; 20.001266889891614
-14001464; 317382; -97509765; 36621093; -48828125; -18310546; 3800000000; -700000000; 1000000000; 10043747711;2300000000; 3200000000; 5000000000; 5009099390; 2000077120; 50.090576360982716; 20.001266889891614
-13891601; 134277; -97631835; -6103515; -36621093; -12207031; 3800000000; -700000000; 1000000000; 10188865661;2300000000; 3200000000; 5000000000; 5009099390; 2000077120; 50.090576360982716; 20.001266889891614
-13769531; 488281; -97497558; -48828125; -24414062; -6103515; 3800000000; -800000000; 1000000000; 10188865661;2300000000; 3200000000; 5000000000; 5009099390; 2000077120; 50.090576360982716; 20.001266889891614
-13854980; 170898; -97509765; 12207031; -36621093; -18310546; 3800000000; -700000000; 1000000000; 10043747711;2300000000; 3200000000; 5000000000; 5009099390; 2000077120; 50.090576360982716; 20.001266889891614
-14038085; 256347; -97460937; -6103515; -36621093; -18310546; 3700000000; -700000000; 1000000000; 10071311950;2300000000; 3200000000; 5000000000; 5009099390; 2000077120; 50.09058636218491; 20.001247066275045
-14099121; 341796; -97473144; -18310546; -36621093; -12207031; 3700000000; -700000000; 1100000000; 10071311950;2300000000; 3200000000; 5000000000; 5009099390; 2000077120; 50.09058636218491; 20.001247066275045
-14270019; 280761; -97387695; 6103515; -42724609; -12207031; 3800000000; -700000000; 1000000000; 10043747711;2300000000; 3200000000; 5000000000; 5009099390; 2000077120; 50.09058636218491; 20.001247066275045
-14062500; 0; -97473144; 12207031; -36621093; -18310546; 3700000000; -700000000; 1000000000; 10043747711;2300000000; 3200000000; 5000000000; 5009099390; 2000077120; 50.09058636218491; 20.001247066275045
-14099121; 524902; -97497558; -30517578; -36621093; -12207031; 3700000000; -800000000; 1000000000; 10220046997;2300000000; 3200000000; 5000000000; 5009099390; 2000077120; 50.09058636218491; 20.001247066275045
-13977050; 415039; -97607421; 61035156; -48828125; -24414062; 3800000000; -700000000; 1000000000; 10043747711;2300000000; 3200000000; 5000000000; 5009099390; 2000077120; 50.09058636218491; 20.001247066275045
-13891601; 244140; -97534179; -67138671; -24414062; -6103515; 3800000000; -700000000; 1000000000; 10043747711;2300000000; 3200000000; 5000000000; 5009099390; 2000077120; 50.09058636218491; 20.001247066275045
-13854980; 268554; -97583007; 0; -36621093; -18310546; 3700000000; -700000000; 1000000000; 10071311950;2300000000; 3200000000; 5000000000; 5009099390; 2000077120; 50.09058636218491; 20.001247066275045
-13842773; 244140; -97473144; -18310546; -30517578; -12207031; 3800000000; -700000000; 1000000000; 10043747711;2300000000; 3200000000; 5000000000; 5009099390; 2000077120; 50.09058636218491; 20.001247066275045
-14099121; 122070; -97521972; 6103515; -36621093; -18310546; 3800000000; -700000000; 1000000000; 10220046997;2300000000; 3200000000; 5000000000; 5009099390; 2000077120; 50.09058636218491; 20.001247066275045
-14062500; 390625; -97509765; -12207031; -30517578; -12207031; 3800000000; -700000000; 1000000000; 10043747711;2300000000; 3200000000; 5000000000; 5009099390; 2000077120; 50.09058636218491; 20.001247066275045
-13928222; 402832; -97460937; -42724609; -24414062; -6103515; 3800000000; -700000000; 1000000000; 10043747711;2300000000; 3200000000; 5000000000; 5009099390; 2000077120; 50.09058636218491; 20.001247066275045
-13928222; 256347; -97570800; 36621093; -42724609; -18310546; 3700000000; -700000000; 1000000000; 10071311950;2300000000; 3200000000; 5000000000; 5009099390; 2000077120; 50.09058636218491; 20.001247066275045
-13879394; 256347; -97473144; -48828125; -30517578; -6103515; 3800000000; -700000000; 1000000000; 10043747711;2300000000; 3200000000; 5000000000; 5009099390; 2000077120; 50.09058636218491; 20.001247066275045
-13928222; 122070; -97460937; 6103515; -42724609; -18310546; 3800000000; -700000000; 1100000000; 10043747711;2300000000; 3200000000; 5000000000; 5009099390; 2000077120; 50.09058636218491; 20.001247066275045
-14062500; 244140; -97509765; -61035156; -24414062; -6103515; 3800000000; -700000000; 1000000000; 10043747711;2300000000; 3200000000; 5000000000; 5009099390; 2000077120; 50.09058636218491; 20.001247066275045
-13940429; 292968; -97509765; 6103515; -42724609; -12207031; 3800000000; -700000000; 1000000000; 10043747711;2300000000; 3200000000; 5000000000; 5009099390; 2000077120; 50.09058636218491; 20.001247066275045
-14147949; 268554; -97509765; -6103515; -36621093; -12207031; 3800000000; -700000000; 1000000000; 10043747711;2300000000; 3200000000; 5000000000; 5009099390; 2000077120; 50.09058636218491; 20.001247066275045
-14074707; 61035; -97485351; 42724609; -48828125; -24414062; 3800000000; -700000000; 1000000000; 10043747711;2300000000; 3200000000; 5000000000; 5009099390; 2000077120; 50.09058636218491; 20.001247066275045
-14147949; 219726; -97460937; -6103515; -36621093; -12207031; 3800000000; -700000000; 1000000000; 10043747711;2300000000; 3200000000; 5000000000; 5009099390; 2000077120; 50.09058636218491; 20.001247066275045
-14208984; 329589; -97534179; 6103515; -30517578; -18310546; 3700000000; -700000000; 1000000000; 10071311950;2300000000; 3200000000; 5000000000; 5009099390; 2000077120; 50.09058636218491; 20.001247066275045
-13977050; 402832; -97570800; -30517578; -30517578; -6103515; 3700000000; -700000000; 1100000000; 10071311950;2300000000; 3200000000; 5000000000; 5009099390; 2000077120; 50.09058636218491; 20.001247066275045
-14099121; 97656; -97509765; 12207031; -36621093; -18310546; 3800000000; -700000000; 1000000000; 10071311950;2300000000; 3200000000; 5000000000; 5009099390; 2000077120; 50.09058636218491; 20.001247066275045
-13952636; 146484; -97436523; -36621093; -30517578; -6103515; 3800000000; -700000000; 1000000000; 10043747711;2300000000; 3200000000; 5000000000; 5009099390; 2000077120; 50.09060085301249; 20.00122231357012
-14270019; 85449; -97497558; 48828125; -42724609; -24414062; 3700000000; -700000000; 1000000000; 10071311950;2300000000; 3200000000; 5000000000; 5009099390; 2000077120; 50.09060085301249; 20.00122231357012
-13977050; 366210; -97583007; -79345703; -18310546; 0; 3700000000; -700000000; 1000000000; 10071311950;2300000000; 3200000000; 5000000000; 5009099390; 2000077120; 50.09060085301249; 20.00122231357012
-13867187; 122070; -97485351; 79345703; -54931640; -18310546; 3700000000; -700000000; 1000000000; 10071311950;2300000000; 3200000000; 5000000000; 5009099390; 2000077120; 50.09060085301249; 20.00122231357012
-13952636; 378417; -97546386; -67138671; -18310546; -6103515; 3700000000; -700000000; 1000000000; 10071311950;2300000000; 3200000000; 5000000000; 5009099390; 2000077120; 50.09060085301249; 20.00122231357012
-14001464; 268554; -97521972; -6103515; -36621093; -12207031; 3700000000; -700000000; 1000000000; 10043747711;2300000000; 3200000000; 5000000000; 5009099390; 2000077120; 50.09060085301249; 20.00122231357012
-14111328; 354003; -97460937; -18310546; -30517578; -12207031; 3800000000; -700000000; 1000000000; 10043747711;2300000000; 3200000000; 5000000000; 5009099390; 2000077120; 50.09060085301249; 20.00122231357012
-13989257; 195312; -97497558; 24414062; -42724609; -18310546; 3700000000; -700000000; 1000000000; 10071311950;2300000000; 3200000000; 5000000000; 5009099390; 2000077120; 50.09060085301249; 20.00122231357012
-13964843; 268554; -97534179; -1550292968; -36621093; -12207031; 3800000000; -700000000; 1000000000; 10043747711;2300000000; 3200000000; 5000000000; 5009099390; 2000077120; 50.09060636639972; 20.00120992864083
-14038085; 402832; -97570800; -24414062; -36621093; -6103515; 3700000000; -700000000; 1000000000; 10071311950;2300000000; 3200000000; 5000000000; 5009099390; 2000077120; 50.09060636639972; 20.00120992864083
-14135742; 378417; -97570800; 24414062; -48828125; -18310546; 3700000000; -800000000; 1000000000; 10220046997;2300000000; 3200000000; 5000000000; 5009099390; 2000077120; 50.09060636639972; 20.00120992864083
-13903808; 134277; -97509765; -12207031; -36621093; -12207031; 3700000000; -700000000; 1100000000; 10220046997;2300000000; 3200000000; 5000000000; 5009099390; 2000077120; 50.09060636639972; 20.00120992864083
-14099121; 354003; -97473144; -12207031; -36621093; -12207031; 3700000000; -700000000; 1000000000; 10071311950;2300000000; 3200000000; 5000000000; 5009099390; 2000077120; 50.09060636639972; 20.00120992864083
-14013671; 439453; -97521972; 18310546; -42724609; -12207031; 3700000000; -700000000; 1000000000; 10071311950;2300000000; 3200000000; 5000000000; 5009099390; 2000077120; 50.09060636639972; 20.00120992864083
-13928222; 122070; -97448730; 0; -36621093; -12207031; 3700000000; -700000000; 1000000000; 10071311950;2300000000; 3200000000; 5000000000; 5009099390; 2000077120; 50.09060636639972; 20.00120992864083
-14111328; 366210; -97509765; -42724609; -30517578; -6103515; 3700000000; -800000000; 1000000000; 10220046997;2300000000; 3200000000; 5000000000; 5009099390; 2000077120; 50.09060636639972; 20.00120992864083
-14172363; 427246; -97558593; 36621093; -48828125; -18310546; 3800000000; -700000000; 1100000000; 10043747711;2300000000; 3200000000; 5000000000; 5009099390; 2000077120; 50.09060636639972; 20.00120992864083
-14038085; 85449; -97448730; 0; -36621093; -12207031; 3700000000; -700000000; 1000000000; 10071311950;2300000000; 3200000000; 5000000000; 5009099390; 2000077120; 50.09060636639972; 20.00120992864083
-14038085; 317382; -97570800; -12207031; -36621093; -12207031; 3800000000; -700000000; 1000000000; 10043747711;2300000000; 3200000000; 5000000000; 5009099390; 2000077120; 50.09060636639972; 20.00120992864083
-13989257; 256347; -97546386; 30517578; -48828125; -18310546; 3700000000; -700000000; 1100000000; 10071311950;2300000000; 3200000000; 5000000000; 5009099390; 2000077120; 50.09060636639972; 20.00120992864083
-14074707; 451660; -97485351; -48828125; -24414062; -6103515; 3800000000; -700000000; 1000000000; 10043747711;2300000000; 3200000000; 5000000000; 5009099390; 2000077120; 50.09060636639972; 20.00120992864083
-13989257; 219726; -97509765; 36621093; -42724609; -18310546; 3800000000; -700000000; 1000000000; 10043747711;2300000000; 3200000000; 5000000000; 5009099390; 2000077120; 50.09060636639972; 20.00120992864083
-14038085; 122070; -97473144; -42724609; -24414062; -12207031; 3700000000; -800000000; 1100000000; 10220046997;2300000000; 3200000000; 5000000000; 5009099390; 2000077120; 50.09060636639972; 20.00120992864083
-14025878; 390625; -97497558; -6103515; -30517578; -12207031; 3700000000; -700000000; 1000000000; 10071311950;2300000000; 3200000000; 5000000000; 5009099390; 2000077120; 50.09060636639972; 20.00120992864083
-13989257; 256347; -97473144; 0; -30517578; -12207031; 3800000000; -700000000; 1000000000; 10188865661;2300000000; 3200000000; 5000000000; 5009099390; 2000077120; 50.090593232580304; 20.00121415024478
-14074707; 268554; -97412109; -36621093; -30517578; -6103515; 3700000000; -700000000; 1000000000; 10071311950;2300000000; 3200000000; 5000000000; 5009099390; 2000077120; 50.090593232580304; 20.00121415024478
-14099121; 354003; -97521972; 6103515; -42724609; -12207031; 3700000000; -700000000; 1000000000; 10071311950;2300000000; 3200000000; 5000000000; 5009099390; 2000077120; 50.090593232580304; 20.00121415024478
-13952636; 231933; -97509765; 0; -36621093; -18310546; 3700000000; -700000000; 1100000000; 10071311950;2300000000; 3200000000; 5000000000; 5009099390; 2000077120; 50.090593232580304; 20.00121415024478
-14147949; 244140; -97412109; 6103515; -42724609; -12207031; 3700000000; -700000000; 1000000000; 10071311950;2300000000; 3200000000; 5000000000; 5009099390; 2000077120; 50.090593232580304; 20.00121415024478
-13989257; 256347; -97534179; 6103515; -42724609; -18310546; 3700000000; -700000000; 1000000000; 10071311950;2300000000; 3200000000; 5000000000; 5009099390; 2000077120; 50.090593232580304; 20.00121415024478
-14038085; 170898; -97497558; -18310546; -36621093; -6103515; 3700000000; -700000000; 1000000000; 10043747711;2300000000; 3200000000; 5000000000; 5009099390; 2000077120; 50.090593232580304; 20.00121415024478
