ax; ay; az; gx; gy; gz; lat; lon
7092; -3194; 10490; 31626; -29956; 3192; 50.08386463393444; 19.99304134087711
-16101; -753; -30250; -3192; -16574; 15813; 50.08386463393444; 19.99304134087711
-30749; -18225; -15602; -13532; 29956; 29195; 50.08386463393444; 19.99304134087711
23800; 25720; -13160; 29956; -26912; -7146; 50.08386463393444; 19.99304134087711
11975; 18014; 20256; -11099; 6236; 17335; 50.08386463393444; 19.99304134087711
16019; 31060; -20941; 5476; -6384; -11099; 50.08386463393444; 19.99304134087711
29065; 23736; 21783; -148; 7907; 761; 50.08386463393444; 19.99304134087711
-14042; 10690; -27883; 12328; -15813; -7146; 50.08386463393444; 19.99304134087711
-6717; 15648; -30782; -30104; -23720; 12621; 50.08386463393444; 19.99304134087711
-13585; 30296; 31474; -4714; 5476; 22050; 50.08386463393444; 19.99304134087711
29904; -26695; 4162; 29195; -10338; 22050; 50.08386463393444; 19.99304134087711
14035; 12824; -32459; 6996; -22198; -23720; 50.08386463393444; 19.99304134087711
5108; -20135; 8206; 29956; 27524; -16574; 50.08386463393444; 19.99304134087711
-22969; -12428; -14605; -15813; -30104; -2432; 50.08386463393444; 19.99304134087711
7092; -14870; 16751; -3954; -27064; -19006; 50.08386463393444; 19.99304134087711
1678; -19371; 26209; 7907; 23424; -11860; 50.08386463393444; 19.99304134087711
15562; 9544; -10179; 18096; -3340; 11860; 50.08386463393444; 19.99304134087711
-14955; 15797; -30018; -5476; -17484; 15052; 50.08386463393444; 19.99304134087711
-26398; -20973; 16369; -23572; -2284; 27820; 50.08386463393444; 19.99304134087711
-13352; 15266; -18957; 3340; -612; 18392; 50.08386463393444; 19.99304134087711
-28458; 18396; 6446; 2112; -28284; -3804; 50.08386463393444; 19.99304134087711
24721; -13874; -19264; 23104; -31480; 7907; 50.08386463393444; 19.99304134087711
25103; 32206; 12549; 5624; 12768; 16574; 50.08386463393444; 19.99304134087711
-32270; -12271; 15904; 16574; 31776; -15664; 50.08386463393444; 19.99304134087711
4119; 32746; 11628; 31328; -23572; 612; 50.08386463393444; 19.99304134087711
31274; 21909; -19496; 12768; -4714; 29048; 50.08386463393444; 19.99304134087711
-24646; 31218; -30400; -5328; 13532; -28284; 50.08386463393444; 19.99304134087711
30286; 22897; 9037; 22810; 13992; 30718; 50.08386463393444; 19.99304134087711
24789; -2430; -15452; 14608; -10338; -7760; 50.08386463393444; 19.99304134087711
-22661; 12069; 9950; -27820; -18244; -6384; 50.08386463393444; 19.99304134087711
21359; 6123; -20418; 14880; -7907; -9429; 50.08386463393444; 19.99304134087711
-10298; -5777; -31711; 31312; -32388; 592; 50.08386463393444; 19.99304134087711
-26474; 29474; -15626; -27376; -7440; 17168; 50.08386463393444; 19.99304134087711
-8403; -29817; -29873; -26176; 10176; 11840; 50.08386463393444; 19.99304134087711
-19854; 32206; -9124; -27040; 23456; 12176; 50.08386463393444; 19.99304134087711
10412; 26169; -16440; -5504; 18624; 8320; 50.08386463393444; 19.99304134087711
7423; -22178; 19956; -26464; 1816; -14624; 50.08386463393444; 19.99304134087711
17562; 2028; -8585; -24628; -16; 19136; 50.08386463393444; 19.99304134087711
-8978; -5553; 4835; -26272; -29024; -21728; 50.08386463393444; 19.99304134087711
-27513; -4257; -6891; -30718; 26432; -29760; 50.08386463393444; 19.99304134087711
-25170; 7950; 15041; 8544; -18712; 15352; 50.08386463393444; 19.99304134087711
-22563; -31877; 350; -12304; 9136; -22958; 50.08386463393444; 19.99304134087711
25717; -1667; -16200; -20208; 28435; 26448; 50.08386463393444; 19.99304134087711
-19823; -6857; 882; -15376; -30240; 23888; 50.08386463393444; 19.99304134087711
-21725; -18922; 32171; 3044; -22958; -15504; 50.08386463393444; 19.99304134087711
27627; -11117; -27419; 27328; -12448; -14736; 50.08386463393444; 19.99304134087711
32601; -21064; 16153; -5184; 9696; -27376; 50.08386463393444; 19.99304134087711
-27395; -27899; -3013; -6536; -1200; 8520; 50.083870276714585; 19.99302463170219
5662; 16794; -17885; -15808; -22624; 2752; 50.083870276714585; 19.99302463170219
-12707; 21511; -11010; -24016; 25092; 5476; 50.083870276714585; 19.99302463170219
13278; 18172; 25520; -21312; -16280; 7146; 50.083870276714585; 19.99302463170219
29104; -13342; 12333; -4128; 2720; -9136; 50.083870276714585; 19.99302463170219
-7938; -19595; 11470; 19136; 21264; -26464; 50.083870276714585; 19.99302463170219
-1803; 27548; -19795; 320; -28435; -22640; 50.083870276714585; 19.99302463170219
14132; 933; 16511; -12304; -22958; -28272; 50.083870276714585; 19.99302463170219
-8679; -13558; 25213; 24016; 32224; 31312; 50.083870276714585; 19.99302463170219
10537; 18321; -18516; -2112; -20380; -23424; 50.08387634425629; 19.992984516433886
-20295; 13895; -18209; -31016; 24332; 4248; 50.08387634425629; 19.992984516433886
-7383; -2655; 1721; -29344; 7312; -18544; 50.08387634425629; 19.992984516433886
-21426; 27166; -32010; 9576; 3168; -21920; 50.08387634425629; 19.992984516433886
-4276; -31262; 14294; 3340; -29024; 30128; 50.08387634425629; 19.992984516433886
-3248; -32483; -7198; 9576; 6384; 23868; 50.08387634425629; 19.992984516433886
-4442; -23099; -20343; 7440; -19767; 13232; 50.08387634425629; 19.992984516433886
-31175; 17400; -1568; 10952; -15200; -3340; 50.08387634425629; 19.992984516433886
-32734; -26986; 25056; -18272; -24944; -32704; 50.08388473500285; 19.9929509195759
15968; -27841; -4092; -5456; -10040; -3954; 50.08388473500285; 19.9929509195759
-22969; -12105; -29801; 18392; 19152; 20824; 50.08388473500285; 19.9929509195759
3760; -11897; 716; -17312; 23744; 3216; 50.08388473500285; 19.9929509195759
-25462; -14878; 15896; 32224; 9248; -21152; 50.08388473500285; 19.9929509195759
28683; 22756; 12301; 30752; -18080; 12640; 50.08388473500285; 19.9929509195759
-28127; -28597; 19342; 18080; 13232; 15520; 50.08388473500285; 19.9929509195759
-7407; -30498; 28253; -12784; 2284; -761; 50.08388473500285; 19.9929509195759
-6529; -16240; 12392; 1840; 17800; -20976; 50.08388473500285; 19.9929509195759
19989; 9395; -2414; -5624; 3340; 19006; 50.08388473500285; 19.9929509195759
-1363; 10856; -27285; -17335; 15813; -26764; 50.08389276313956; 19.99291522997597
24048; -6010; -16374; 23104; 25392; -8368; 50.08389276313956; 19.99291522997597
26946; 14203; -18583; 16724; -4100; -8200; 50.08389276313956; 19.99291522997597
-11735; 17483; -579; -17335; 19744; -11872; 50.08389276313956; 19.99291522997597
15719; 17566; 9261; 4568; -17484; -9576; 50.08389276313956; 19.99291522997597
-31183; -30507; 17499; 1248; -11248; -17484; 50.08389276313956; 19.99291522997597
-28451; -26454; -26214; -19006; -4568; -25092; 50.08389276313956; 19.99291522997597
-28982; -6317; -31172; 3954; -18096; -29195; 50.08389276313956; 19.99291522997597
-4792; -3186; 7659; -736; -1670; -11860; 50.08390289069878; 19.99288249010654
-906; -26845; -32542; -30128; 2592; 3656; 50.08390289069878; 19.99288249010654
-17996; 7717; -20327; -32536; -26296; -22344; 50.08390289069878; 19.99288249010654
25725; 14195; 16593; -13552; 296; -1376; 50.08390289069878; 19.99288249010654
18775; -5470; -18417; 32224; 14904; -11099; 50.08390289069878; 19.99288249010654
-11046; 25280; 3564; 15664; -8816; 16574; 50.08390289069878; 19.99288249010654
-28443; -25001; 7600; 32240; -3044; 10338; 50.08390289069878; 19.99288249010654
24654; 3681; 18503; 5768; -11712; 27968; 50.08390289069878; 19.99288249010654
30376; -31885; -22162; 24944; 22198; 22958; 50.083909593377356; 19.992847810047
21515; 19999; -15684; -25392; 15040; -26928; 50.083909593377356; 19.992847810047
-19681; 10773; -5304; -7146; -24016; 8224; 50.083909593377356; 19.992847810047
16956; 9777; 30179; -13382; 14292; -23572; 50.083909593377356; 19.992847810047
-31424; -27301; 4528; 2448; 21140; 761; 50.083909593377356; 19.992847810047
-10290; -10219; -24229; 19767; 31792; 24032; 50.083909593377356; 19.992847810047
24048; -4108; 18661; -320; 7608; 24332; 50.083909593377356; 19.992847810047
-5938; 6114; -10030; -13216; 11099; 10338; 50.083909593377356; 19.992847810047
27095; 10076; -26895; -20352; 4248; 1670; 50.083916221945465; 19.99281697000199
27477; -16315; 24142; -17944; 32240; 31480; 50.083916221945465; 19.99281697000199
-1288; -24328; 3631; -26928; -10338; -16574; 50.083916221945465; 19.99281697000199
15727; 5890; -24371; 3044; 24016; -11560; 50.083916221945465; 19.99281697000199
24272; -2513; -10345; 24032; -6236; 14292; 50.083916221945465; 19.99281697000199
28848; 10997; 15987; -13532; 27820; 21436; 50.083916221945465; 19.99281697000199
6576; -4348; -19039; 17335; -26616; 1816; 50.083916221945465; 19.99281697000199
31139; 24201; 27273; -7608; -20064; 3044; 50.083916221945465; 19.99281697000199
-2434; -28837; -1650; 16288; 28584; -908; 50.083916221945465; 19.99281697000199
27934; -7471; -9573; -30256; 13532; 15052; 50.083916221945465; 19.99281697000199
-4792; 2228; 23004; -7488; 24332; -12621; 50.083921511761176; 19.99279106712378
4201; -17685; 14609; -1984; 30866; -32240; 50.083921511761176; 19.99279106712378
-1745; 3673; -8435; -30104; -8816; 28284; 50.083921511761176; 19.99279106712378
-21126; -31570; 8123; -4448; 18858; -11712; 50.083921511761176; 19.99279106712378
7871; -22186; 23835; -23104; -29488; 19328; 50.083921511761176; 19.99279106712378
21598; 19393; 6977; -2896; -3804; 22496; 50.083921511761176; 19.99279106712378
-28293; 23520; -23225; 25392; -14904; 15052; 50.083921511761176; 19.99279106712378
-30510; 21826; 8580; 8080; -20080; -9896; 50.08392822399598; 19.992759531058965
-30053; -17228; 28186; -19152; 8520; -25392; 50.08392822399598; 19.992759531058965
-1363; -22261; -9723; 10952; 13382; 11099; 50.08392822399598; 19.992759531058965
-9451; 25563; 27040; 14904; 17040; 10040; 50.08392822399598; 19.992759531058965
26323; 31135; 31781; -3216; 16736; -23408; 50.08392822399598; 19.992759531058965
10553; -27982; 18893; -20080; -27072; 4400; 50.08392822399598; 19.992759531058965
4890; 9170; -3859; 296; 28584; -28896; 50.08392822399598; 19.992759531058965
-14259; -23946; 11628; -9120; 3044; 12328; 50.08392822399598; 19.992759531058965
11151; -12877; -8427; 14128; -27376; -31328; 50.08392822399598; 19.992759531058965
-30652; -10818; -20866; 5624; 1670; -22198; 50.083936515887345; 19.992730401073786
-27462; -29593; -23773; -6680; -31626; -28435; 50.083936515887345; 19.992730401073786
-14334; 15274; 23536; -15052; 13848; 17040; 50.083936515887345; 19.992730401073786
-10746; 9934; -13160; 12008; -1816; -148; 50.083936515887345; 19.992730401073786
2756; 20381; 24981; 16280; 31776; -15664; 50.083936515887345; 19.992730401073786
22977; 16569; -21331; 9429; -22810; 15200; 50.083936515887345; 19.992730401073786
-3962; 26816; -1220; 12768; -3192; -761; 50.08394231423811; 19.992697032125186
12364; -4041; 16676; -32704; -20380; 10338; 50.08394231423811; 19.992697032125186
21449; -20060; 27422; 2448; -18244; 25092; 50.08394231423811; 19.992697032125186
23433; -2655; 28726; 6848; -31480; 19916; 50.08394231423811; 19.992697032125186
5662; 4894; -8435; 24184; 27984; 14904; 50.08394231423811; 19.992697032125186
23725; -26097; 22854; 7907; -2112; 10512; 50.08394231423811; 19.992697032125186
-20138; -14098; -21240; -4568; 23280; 2136; 50.08394231423811; 19.992697032125186
-28592; 13821; 16759; 12768; 23720; -26764; 50.08394231423811; 19.992697032125186
20295; 11462; -1220; -1840; -32388; -8520; 50.08394231423811; 19.992697032125186
19240; 17857; 26127; 9872; 24332; 3192; 50.08394231423811; 19.992697032125186
7489; 20846; -1220; 21584; -17040; -22664; 50.08395207998831; 19.992669881305556
6261; 19310; 19334; 3192; 26912; -31480; 50.08395207998831; 19.992669881305556
19165; -24403; -14771; 31936; -8667; -2432; 50.08395207998831; 19.992669881305556
-17846; 17267; 15987; 6224; -2136; 17024; 50.08395207998831; 19.992669881305556
-21359; -26845; 11777; -21264; -32388; -30104; 50.08395207998831; 19.992669881305556
6576; 29690; -7372; 25120; 4100; -27524; 50.08395207998831; 19.992669881305556
6717; 19476; 1638; -3504; 1840; 28896; 50.08395207998831; 19.992669881305556
-8612; 2610; -4391; 25092; 18096; -2432; 50.08395207998831; 19.992669881305556
10313; -22501; 13006; -27524; -13532; -31016; 50.08395207998831; 19.992669881305556
9242; -29743; 1339; -19767; 27064; -25092; 50.08395602667691; 19.99263537211892
-27230; -27218; -1560; -20527; 14904; -26912; 50.08395602667691; 19.99263537211892
9399; 4504; 14766; -2256; -29195; 23572; 50.08395602667691; 19.99263537211892
-31424; 12742; 13238; 8368; -25536; 3504; 50.08395602667691; 19.99263537211892
-15480; 25122; 21019; 2080; -2136; -17188; 50.08395602667691; 19.99263537211892
-23560; -23631; 417; -7608; -29488; 31328; 50.08395602667691; 19.99263537211892
6194; -24029; 5001; 10190; 21584; -5476; 50.08395602667691; 19.99263537211892
-27919; -13409; -24836; 26912; 1200; 6064; 50.08395602667691; 19.99263537211892
-11975; 14825; 26201; 3340; 19767; 9576; 50.08395602667691; 19.99263537211892
-20138; -19371; -5462; -12448; -6832; 23120; 50.08396518401855; 19.992605797839023
-22563; -13649; 30403; -25664; -29344; -23104; 50.08396518401855; 19.992605797839023
21681; 18404; -13011; -27524; -27524; -17188; 50.08396518401855; 19.992605797839023
-10439; 32040; 28643; -17944; 17024; 32688; 50.08396518401855; 19.992605797839023
-24324; -24262; -7671; 16592; 10338; 2728; 50.08396518401855; 19.992605797839023
-23717; -21513; 29714; -27936; -14464; -1522; 50.08396518401855; 19.992605797839023
26938; 9985; -18649; 22368; -18096; -23868; 50.08397211014754; 19.99257283621939
19547; -26289; 13255; 13184; -18880; 9696; 50.08397211014754; 19.99257283621939
-24182; 9544; 25512; 27232; 20848; -9872; 50.08397211014754; 19.99257283621939
-8147; -26778; -29112; -22958; 14142; -23720; 50.08397211014754; 19.99257283621939
22736; 8107; -22544; 896; -8352; -32688; 50.08397211014754; 19.99257283621939
-7001; 17566; -9723; 24944; 14608; 17800; 50.08397211014754; 19.99257283621939
17869; 692; 21252; -26002; 16724; -22050; 50.08397211014754; 19.99257283621939
-25320; 23661; -22851; 31936; -2432; 12472; 50.08397211014754; 19.99257283621939
22669; -16481; 7210; -31936; -18392; 22810; 50.08397908570678; 19.992541087124533
29537; -17685; 6985; -31792; 8968; -11712; 50.08397908570678; 19.992541087124533
-1438; 24508; 7509; -6536; 21584; 27208; 50.08397908570678; 19.992541087124533
10919; 24201; 22083; 14736; -12472; 908; 50.08397908570678; 19.992541087124533
2225; 11612; 25512; -8200; -296; -908; 50.08397908570678; 19.992541087124533
-21351; -28057; 16826; -8368; 32240; 20380; 50.08397908570678; 19.992541087124533
-30510; 29233; -23308; 25242; -21584; 29656; 50.08397908570678; 19.992541087124533
3744; -21887; -14995; 12304; 24628; 29344; 50.08397908570678; 19.992541087124533
32518; -27218; 29257; 25216; -11712; -22050; 50.08397908570678; 19.992541087124533
-7923; -9207; -18575; 2432; -14904; -3044; 50.08398518094457; 19.992511371878166
27627; 19542; -21946; -11560; -14752; 16872; 50.08398518094457; 19.992511371878166
-30510; -14928; 28344; 761; -7760; 19916; 50.08398518094457; 19.992511371878166
22977; 30221; 10939; -21728; -4416; -7456; 50.08398518094457; 19.992511371878166
18858; -27675; -9199; -12768; 3044; -30866; 50.08398518094457; 19.992511371878166
-16011; 30844; -4466; -16424; 30866; -21289; 50.08398518094457; 19.992511371878166
-18228; -28746; 5383; 16724; -21289; -24481; 50.08398518094457; 19.992511371878166
21141; 326; 26591; -480; 15813; 24481; 50.083991554896905; 19.992480509847237
-13038; -11656; -21016; -2284; 21752; 3656; 50.083991554896905; 19.992480509847237
32368; -18308; -19039; -1664; 15813; 7146; 50.083991554896905; 19.992480509847237
24504; 29690; 14601; 16280; 5152; 27968; 50.083991554896905; 19.992480509847237
-28069; -10585; -10794; -22224; -13848; -4416; 50.083991554896905; 19.992480509847237
-8687; 14510; 11021; -32704; 8056; -21904; 50.083991554896905; 19.992480509847237
28391; 21535; -16673; -22958; 7760; -16724; 50.083991554896905; 19.992480509847237
8860; 28095; -14389; 18244; 15664; -17335; 50.083991554896905; 19.992480509847237
-16236; -25250; -17138; -7608; 11248; 24481; 50.083991554896905; 19.992480509847237
-16393; -14779; 23146; -21752; -26764; -4568; 50.083991554896905; 19.992480509847237
19921; -22651; 3697; 4248; 31626; -10338; 50.084003818566835; 19.99245458153127
-17838; -1974; 9868; 21436; -25680; 20848; 50.084003818566835; 19.99245458153127
-6395; 10316; 11935; 11099; 29956; 22810; 50.084003818566835; 19.99245458153127
23126; -19969; -1418; -29648; -15200; 21289; 50.084003818566835; 19.99245458153127
13061; 12301; 16818; 12472; 15520; 5768; 50.084003818566835; 19.99245458153127
-5332; -11050; -28415; -6996; -4416; 6384; 50.084003818566835; 19.99245458153127
-27371; -3958; -17819; 2112; -26296; 32240; 50.084003818566835; 19.99245458153127
771; 20854; 20413; -12448; -20527; 15664; 50.084005957537265; 19.99242151947356
24878; 31600; -5072; -29168; 29656; -14440; 50.084005957537265; 19.99242151947356
8411; 23869; 13230; -20608; 30400; -1670; 50.084005957537265; 19.99242151947356
24422; 9560; 4013; 27808; -592; 28752; 50.084005957537265; 19.99242151947356
8403; -9538; -12637; -30656; -32536; -5152; 50.084005957537265; 19.99242151947356
32360; -27841; 791; -17648; 11712; 30718; 50.084005957537265; 19.99242151947356
-5174; -2356; -1568; 15960; 23572; 22050; 50.084005957537265; 19.99242151947356
25501; -22434; -23009; 30718; -23572; 10338; 50.084005957537265; 19.99242151947356
4284; 31218; 16137; -4736; 1200; 9872; 50.08401467100827; 19.99239669750724
21831; -3111; 22157; 18244; 31480; -17484; 50.08401467100827; 19.99239669750724
-29970; 26792; -13393; -9408; 1670; 29956; 50.08401467100827; 19.99239669750724
-10746; -24096; -17287; 30866; -11712; 22198; 50.08401467100827; 19.99239669750724
-10597; -11432; -26895; 3024; 15052; -28435; 50.08401467100827; 19.99239669750724
25875; 2378; 19035; -3192; 22344; -15664; 50.08401467100827; 19.99239669750724
1768; -16390; -16141; 6236; -31016; -13532; 50.08401467100827; 19.99239669750724
26182; -26845; 22315; -21436; -31480; 6384; 50.08401467100827; 19.99239669750724
19846; 9478; -8128; -16424; -1522; 17484; 50.08401964999128; 19.99237164286421
-23643; 30910; 17657; 14142; 29048; 10952; 50.08401964999128; 19.99237164286421
-25860; -16082; -26438; -31184; 21752; -29488; 50.08401964999128; 19.99237164286421
20842; 32447; 2327; 29808; -10190; -7907; 50.08401964999128; 19.99237164286421
-26541; 8780; 21468; 7608; 27984; 20080; 50.08401964999128; 19.99237164286421
-27064; -27218; -27576; -8667; -1670; 12621; 50.08401964999128; 19.99237164286421
1618; -2655; -21630; -17484; -7456; 20064; 50.08401964999128; 19.99237164286421
3670; -23407; -5612; 31160; -24800; 28728; 50.08401964999128; 19.99237164286421
-16393; -18839; 18570; -27820; 25242; -12768; 50.08401964999128; 19.99237164286421
31596; 21685; -14007; 4714; 12008; 7146; 50.08401964999128; 19.99237164286421
6958; 31525; -19803; -18560; -30568; -25092; 50.084025520424014; 19.99234381002581
16109; 22523; 10939; 14904; 29344; -11712; 50.084025520424014; 19.99234381002581
-2127; 29623; -8211; -11712; -1522; 22958; 50.084025520424014; 19.99234381002581
-11585; -17843; 16129; 13232; 16574; 15813; 50.084025520424014; 19.99234381002581
-1363; -31188; 29556; -12621; 27524; 21140; 50.084025520424014; 19.99234381002581
25875; 2693; 11021; -26320; 4248; 7292; 50.084025520424014; 19.99234381002581
14806; 16262; 791; -21904; -31626; -1522; 50.084025520424014; 19.99234381002581
24886; 27174; 26276; -320; 20064; -12328; 50.084025520424014; 19.99234381002581
-12581; 11545; 5898; -29195; -30718; -15520; 50.084025520424014; 19.99234381002581
-9758; 2843; -10270; -18392; -22496; -20064; 50.08403081730797; 19.992312538356327
27403; 1232; 12234; -8032; 6996; -11248; 50.08403081730797; 19.992312538356327
-26159; -24627; 20704; 1056; -4714; 5476; 50.08403081730797; 19.992312538356327
17712; 11911; 9486; 22664; -17944; -13232; 50.08403081730797; 19.992312538356327
8096; -2497; 14144; -20380; -25536; -13680; 50.08403081730797; 19.992312538356327
23740; -27907; -14846; 26002; -2284; 22198; 50.08403081730797; 19.992312538356327
-22422; 775; -4167; -11392; -1522; -3192; 50.08403081730797; 19.992312538356327
-1595; 17715; 9942; -1522; -22198; -30866; 50.08403081730797; 19.992312538356327
-9526; 25729; -9349; 5152; 12472; -30104; 50.08403081730797; 19.992312538356327
-8230; 9934; -29262; -29344; 22050; 26002; 50.08403081730797; 19.992312538356327
5812; 5890; -7214; 19916; -3954; 22198; 50.08403898818041; 19.99228466101087
-31806; 10923; -12479; -15052; 13532; 1670; 50.08403898818041; 19.99228466101087
-19980; 25339; -1875; 20380; 23720; 12621; 50.08403898818041; 19.99228466101087
-13877; -16539; 7434; -10040; 5936; 10040; 50.08403898818041; 19.99228466101087
5505; 26717; -4233; 18392; -5768; 25092; 50.08403898818041; 19.99228466101087
-25013; 23578; 12392; -29648; -13382; 10190; 50.08403898818041; 19.99228466101087
-2658; -11963; 16893; -24184; -148; 11712; 50.08403898818041; 19.99228466101087
21449; 15357; 28418; 27504; 8667; 29956; 50.08403898818041; 19.99228466101087
27702; -32491; -4773; -19472; 26764; -1816; 50.08403898818041; 19.99228466101087
-6545; -12345; -2406; -22958; 31776; 30104; 50.08405315850607; 19.99225971148452
12215; 22299; -24304; -2576; 4100; 28584; 50.08405315850607; 19.99225971148452
-14716; -24403; 23602; -6536; 32240; 4714; 50.08405315850607; 19.99225971148452
7033; -2281; 5225; -10048; -20380; 13680; 50.08405315850607; 19.99225971148452
-11368; 1622; 24300; 15040; -15520; -16280; 50.08405315850607; 19.99225971148452
-16393; 18255; 24366; 24332; 12176; -8200; 50.08405315850607; 19.99225971148452
-5872; 25181; 3839; -7312; -25092; 8056; 50.08405315850607; 19.99225971148452
15644; -31869; 24756; -16574; -13360; -29312; 50.08405315850607; 19.99225971148452
5123; 18097; 31317; -12304; -24928; 4128; 50.084057921574306; 19.99221961604067
32293; -4415; -29727; -28880; -5024; 448; 50.084057921574306; 19.99221961604067
-29296; 3831; -25533; -12472; -5476; -12621; 50.084057921574306; 19.99221961604067
25800; -27982; 14758; -26912; 29648; -2896; 50.084057921574306; 19.99221961604067
18318; 28477; -31097; 21904; 4714; -21289; 50.084057921574306; 19.99221961604067
-25170; -27069; 7044; 8667; 11860; 30104; 50.084057921574306; 19.99221961604067
14274; -587; -5379; -11712; -8520; -17188; 50.084057921574306; 19.99221961604067
-25852; 13746; -17901; 9136; 21904; 21904; 50.084057921574306; 19.99221961604067
24812; 9926; 16818; 29656; 31016; -31480; 50.084066782376105; 19.992187731504263
28009; -27227; 23602; -29344; -7146; 22198; 50.084066782376105; 19.992187731504263
-27529; -18823; -25931; -16280; -18416; 28112; 50.084066782376105; 19.992187731504263
18850; 3524; -13857; -13360; -3192; -13382; 50.084066782376105; 19.992187731504263
13817; -28215; -26438; -612; -8667; -15813; 50.084066782376105; 19.992187731504263
-23418; 19168; 5449; -24800; -28584; -15813; 50.084066782376105; 19.992187731504263
18251; 18321; -8817; -10512; 3954; -6236; 50.084066782376105; 19.992187731504263
-21201; 3980; -22859; -896; 28752; 23280; 50.08407459620178; 19.992153119372567
7265; -26313; -5147; -20688; -15200; -7146; 50.08407459620178; 19.992153119372567
8702; 27016; -30790; -3216; 3024; -6560; 50.08407459620178; 19.992153119372567
-24863; -21938; -1260; 25242; -5920; -20064; 50.08407459620178; 19.992153119372567
-26541; 1472; 26359; -28608; -4714; -3044; 50.08407459620178; 19.992153119372567
-23418; -7463; -9199; 1670; -10190; -20527; 50.08407459620178; 19.992153119372567
20685; 29324; -21174; -8224; 19328; 27524; 50.08407459620178; 19.992153119372567
14739; 19916; 27954; -12768; -23104; -10488; 50.08407459620178; 19.992153119372567
-15779; 24126; 17814; 25392; 22344; -6848; 50.08407822797163; 19.99212412017318
11841; 5815; -12861; -14584; 6536; 22344; 50.08407822797163; 19.99212412017318
8860; -2812; -22701; 19792; 23868; 5476; 50.08407822797163; 19.99212412017318
-9758; -25557; 30470; -27984; -14608; 31016; 50.08407822797163; 19.99212412017318
28466; 3382; -12786; -22050; -32536; 10190; 50.08407822797163; 19.99212412017318
27403; -17685; -28273; 20064; 9280; 17188; 50.08407822797163; 19.99212412017318
-24249; 1996; -13318; -10040; 3656; 2284; 50.08407822797163; 19.99212412017318
16034; -5494; -2257; 2592; 4714; 29956; 50.08407822797163; 19.99212412017318
-29289; -21264; 10332; -1376; 22032; -19792; 50.08407822797163; 19.99212412017318
-20288; -12570; 8497; 24928; -4544; -1968; 50.08408374789287; 19.99209413755948
-28899; 4961; 15829; 20976; 28435; 19767; 50.08408374789287; 19.99209413755948
4816; 9486; 30627; 14142; 27208; 10016; 50.08408374789287; 19.99209413755948
27544; 933; 6812; -21888; 320; -26448; 50.08408374789287; 19.99209413755948
29777; -26380; 18586; -5768; -22368; 8200; 50.08408374789287; 19.99209413755948
-32727; -28372; 14061; 28435; 18544; 6680; 50.08408374789287; 19.99209413755948
12447; -29353; 32305; 1816; 20208; -2752; 50.08408374789287; 19.99209413755948
18243; 8332; -27974; -27504; -31920; 12944; 50.08409266346565; 19.992065192880315
2382; 27780; -10187; 13232; 13532; 11099; 50.08409266346565; 19.992065192880315
2067; 16495; 30096; -29048; 31776; -21904; 50.08409266346565; 19.992065192880315
-12042; 14742; 27273; -27360; 26002; -11099; 50.08409266346565; 19.992065192880315
2756; 25945; 3083; -19916; -8368; 27064; 50.08409266346565; 19.992065192880315
12829; 29158; 23378; -5476; 12472; 31480; 50.08409266346565; 19.992065192880315
3445; 29391; 13388; 18244; -908; -15960; 50.08409266346565; 19.992065192880315
-12200; -24860; 23827; 8496; 26764; 13532; 50.08409266346565; 19.992065192880315
-5182; 9178; 7442; 22050; 19620; 28435; 50.08409868976197; 19.992035450194198
-22422; -19977; 6745; 6560; 29956; -22958; 50.08409868976197; 19.992035450194198
-7466; -24561; -14771; 928; -23104; 21289; 50.08409868976197; 19.992035450194198
25343; -4714; -22237; -4736; 21728; -3504; 50.08409868976197; 19.992035450194198
31663; 10549; 14766; 12328; -6088; 24016; 50.08409868976197; 19.992035450194198
8934; -595; -29876; 31480; 18560; -26296; 50.08409868976197; 19.992035450194198
14739; 15341; 1031; -22198; -13072; 25704; 50.08409868976197; 19.992035450194198
27170; 29084; -15984; 27820; 5624; -18096; 50.08409868976197; 19.992035450194198
31057; 1539; 28261; -30848; 25552; -4400; 50.08409868976197; 19.992035450194198
13219; 8631; 20870; -18560; 5624; -28284; 50.08409868976197; 19.992035450194198
11069; -7463; -29411; -28896; -20232; -13992; 50.08410650472976; 19.992008607035235
14357; -18532; -21556; -2728; 8056; -20380; 50.08410650472976; 19.992008607035235
27552; 16113; 25138; -13088; -5476; -14142; 50.08410650472976; 19.992008607035235
-906; 13746; -16366; 8080; -16724; -16872; 50.08410650472976; 19.992008607035235
-14865; -32342; 17275; -9896; -14440; 12621; 50.08410650472976; 19.992008607035235
-19972; 17790; 2177; -25408; 7292; -11712; 50.08410650472976; 19.992008607035235
27777; 3914; -22469; -12784; -7312; 7584; 50.08410650472976; 19.992008607035235
-22654; -19595; -1576; -6224; -5008; -19152; 50.084108845214054; 19.99197354551632
-26923; 18396; 4993; -26152; -19152; 13232; 50.084108845214054; 19.99197354551632
-7167; 27713; 8812; 22496; -7292; 4714; 50.084108845214054; 19.99197354551632
-3580; 30537; 15522; 1056; -26448; 20232; 50.084108845214054; 19.99197354551632
-17606; -16173; 16129; -24464; -5008; 25704; 50.084108845214054; 19.99197354551632
-19134; -31113; 19035; -12784; 7440; -4416; 50.084108845214054; 19.99197354551632
29304; 26949; 12018; -15520; 10632; -18712; 50.084108845214054; 19.99197354551632
-10447; 2909; 20704; -30400; 18858; 16424; 50.084108845214054; 19.99197354551632
15885; -19520; 19566; -8667; -10338; 18858; 50.084108845214054; 19.99197354551632
22669; -1891; 20937; -14142; 2136; -5008; 50.084108845214054; 19.99197354551632
-14865; -28979; -23922; -2896; -15813; -31626; 50.0841161678474; 19.99193999501392
-20429; -23872; -20335; -5768; -1224; -25704; 50.0841161678474; 19.99193999501392
-24789; 19566; 26749; -32088; -16736; -28608; 50.0841161678474; 19.99193999501392
26564; 2760; -8045; 24928; -21584; 23572; 50.0841161678474; 19.99193999501392
-22646; 18338; 5930; 21856; -22664; -7456; 50.0841161678474; 19.99193999501392
-14865; 26460; -31853; -19424; -5648; -26616; 50.0841161678474; 19.99193999501392
-1438; 22606; -8120; -12640; -12621; -7760; 50.08412244761097; 19.99191131074949
-17307; -12503; 30785; -10784; 27673; -2432; 50.08412244761097; 19.99191131074949
-17614; 6106; -7978; 17648; 3044; -908; 50.08412244761097; 19.99191131074949
-14409; 10167; -14223; 3632; -4248; -31920; 50.08412244761097; 19.99191131074949
-19748; -6782; 25438; -28608; -26912; -1522; 50.08412244761097; 19.99191131074949
-13944; 12600; 5300; -464; 24628; -9280; 50.08412244761097; 19.99191131074949
-32030; 14427; -23465; 7146; 26448; -25704; 50.08412244761097; 19.99191131074949
-12424; -438; 30328; -22050; 26448; 25680; 50.08412244761097; 19.99191131074949
9316; 13364; 24748; 17800; -14904; 14292; 50.08412244761097; 19.99191131074949
-4037; -3576; 9419; 23256; 1056; -24032; 50.08412244761097; 19.99191131074949
-17921; 8257; -18201; -6368; 19024; 4880; 50.08412973452168; 19.991880734738622
-10356; -23340; 8887; 7146; -21140; 15960; 50.08412973452168; 19.991880734738622
-28525; -14563; -4399; -15680; 19472; -23720; 50.08412973452168; 19.991880734738622
2831; 29391; -29337; -15504; 31184; -10016; 50.08412973452168; 19.991880734738622
-28899; 30163; -31861; 22368; 22664; 9429; 50.08412973452168; 19.991880734738622
-8372; 775; 29100; -10656; -20380; 2432; 50.08412973452168; 19.991880734738622
9159; 26792; 14302; 27360; -320; -31184; 50.08412973452168; 19.991880734738622
7400; -28431; 20555; -24016; -26592; 27072; 50.08412973452168; 19.991880734738622
-12483; -13574; 25138; -13680; 11712; -761; 50.08412973452168; 19.991880734738622
31206; -25624; -8593; 24928; 22496; 28728; 50.084137084092646; 19.9918518948296
30525; 29241; -27659; 25242; 19472; 12328; 50.084137084092646; 19.9918518948296
17944; 23204; -2938; 19472; -24776; 16424; 50.084137084092646; 19.9918518948296
-7466; -2580; -5230; -17800; -26002; 6536; 50.084137084092646; 19.9918518948296
1851; 9237; -29029; 10800; -17800; -25704; 50.084137084092646; 19.9918518948296
-7159; 1389; 25371; 4832; -26016; 23408; 50.084137084092646; 19.9918518948296
-5564; 24150; 26135; 15200; -15504; -17776; 50.084137084092646; 19.9918518948296
2457; 20865; -8219; -25568; 13532; -31936; 50.084137084092646; 19.9918518948296
-17681; 2311; 22024; 25392; -30424; 19152; 50.084137084092646; 19.9918518948296
22736; 27946; -1650; -19916; 25840; 30848; 50.08414214247685; 19.991820672346474
6792; 6064; -28864; -13248; 9744; 1072; 50.08414214247685; 19.991820672346474
28233; -32697; 27655; 2576; -28880; 21904; 50.08414214247685; 19.991820672346474
8187; -24545; 16220; 15488; 4100; -19648; 50.08414214247685; 19.991820672346474
10852; 29009; -26962; 31160; 3192; -21289; 50.08414214247685; 19.991820672346474
22744; 19451; 3465; -5920; 27208; 27208; 50.08414214247685; 19.991820672346474
30600; -14854; -31172; -22810; -13216; -13968; 50.08414214247685; 19.991820672346474
10163; 15423; 31474; 24928; -31626; -4714; 50.08414214247685; 19.991820672346474
9017; -17236; 12766; -16112; 19006; 16574; 50.08415011074853; 19.9917929017027
-7773; 4977; 5001; -7608; 7146; -23720; 50.08415011074853; 19.9917929017027
-29132; 13513; -18807; -24016; 4100; 25392; 50.08415011074853; 19.9917929017027
10769; 24575; 11553; -8968; 11099; -6996; 50.08415011074853; 19.9917929017027
-13869; -11814; -29262; 18096; -29808; 15200; 50.08415011074853; 19.9917929017027
19007; -25092; -2406; -17024; -1522; -10338; 50.08415011074853; 19.9917929017027
2756; 24957; -5844; 29048; -9429; 4714; 50.08415011074853; 19.9917929017027
-26541; 4437; 492; 24160; 3656; -1816; 50.08415011074853; 19.9917929017027
-21044; 13364; -13924; -9136; -15052; -29344; 50.08415011074853; 19.9917929017027
15420; 19924; -30939; -22958; 29808; 9280; 50.084159270187605; 19.99176695092882
27253; 21751; 17657; -15200; 15664; 19620; 50.084159270187605; 19.99176695092882
-11436; -5561; -31246; -3360; -17484; 3804; 50.084159270187605; 19.99176695092882
21366; -16382; 29938; -30568; 26764; -2432; 50.084159270187605; 19.99176695092882
-4103; 31068; -11798; -30704; -26912; -22198; 50.084159270187605; 19.99176695092882
-6702; 24425; 23984; -20688; 10338; 19767; 50.084159270187605; 19.99176695092882
-21276; 858; 25977; 24608; 4544; -5792; 50.084159270187605; 19.99176695092882
-25021; 21078; -30183; -23256; 31016; -1984; 50.084159270187605; 19.99176695092882
31903; -4564; 12002; 928; 6236; -17484; 50.08416245190182; 19.991734208136002
-32644; -32035; 29556; 1522; 13532; 32536; 50.08416245190182; 19.991734208136002
-18535; -4332; 7891; 18096; -17776; 9280; 50.08416245190182; 19.991734208136002
-27072; -7994; 4461; 27376; 10952; 22050; 50.08416245190182; 19.991734208136002
-23717; -29743; -20800; 28448; -9120; 28136; 50.08416245190182; 19.991734208136002
-18760; -18532; -3253; 32064; -13532; 1522; 50.08416245190182; 19.991734208136002
7340; -16082; -10876; -6848; 4568; -9576; 50.08416245190182; 19.991734208136002
-366; -10660; -15676; 22958; -20232; 19304; 50.08416245190182; 19.991734208136002
-2965; 26028; -26446; -8968; 23868; 10488; 50.08416245190182; 19.991734208136002
-24332; 29765; 11628; 1376; 19304; -9280; 50.084168284200764; 19.991702082455557
23126; 22141; 28875; 5768; 8816; 21436; 50.084168284200764; 19.991702082455557
-29132; -15169; -21091; 27673; -11712; 25392; 50.084168284200764; 19.991702082455557
6883; 2452; 3008; 18112; -17800; -27524; 50.084168284200764; 19.991702082455557
-14400; 22897; 25146; 17632; -32064; -10488; 50.084168284200764; 19.991702082455557
1162; 11379; 8364; 24928; -10656; 17484; 50.084168284200764; 19.991702082455557
8777; -446; -22012; 19006; -29504; 3488; 50.084168284200764; 19.991702082455557
-10821; 14419; -11640; -27673; 9744; -1200; 50.084168284200764; 19.991702082455557
22453; -30274; 14318; -11099; 2284; 5624; 50.084168284200764; 19.991702082455557
28241; -15626; 25520; 27376; 24776; -23424; 50.08417818123416; 19.99167153772547
-18909; 30363; -27659; 16724; 20527; 13532; 50.08417818123416; 19.99167153772547
-17763; 31749; 13089; 30104; 3192; -23868; 50.08417818123416; 19.99167153772547
2756; 3142; 27663; -5024; -6848; 17484; 50.08417818123416; 19.99167153772547
23201; -15700; -28573; 5476; 8368; -12160; 50.08417818123416; 19.99167153772547
-30809; 28477; 17590; -30128; 11248; -28896; 50.08417818123416; 19.99167153772547
-23950; -9447; 15672; -18244; 15520; -24628; 50.08417818123416; 19.99167153772547
-14483; -17378; 9269; 15520; -24481; 1522; 50.08418288864348; 19.991642071658056
-1363; 14128; -28955; 10488; -5476; 9576; 50.08418288864348; 19.991642071658056
18169; -3726; -24911; -19006; -16574; -22810; 50.08418288864348; 19.991642071658056
-30734; -603; -25525; -21584; -25092; 12768; 50.08418288864348; 19.991642071658056
-9600; 11836; -7821; -19006; -3192; -29956; 50.08418288864348; 19.991642071658056
-19980; 5965; 2941; -30568; 10190; 32388; 50.08418288864348; 19.991642071658056
-21808; 26102; -7364; -28896; -23868; 23572; 50.08418288864348; 19.991642071658056
-29057; 12824; -30325; 25536; -8667; -12621; 50.08418288864348; 19.991642071658056
-21882; 15033; -2863; -32388; -21289; -15813; 50.08418288864348; 19.991642071658056
21224; -10137; 23386; 30568; -10800; 908; 50.08418978491242; 19.991613214772013
32277; 1157; 12317; 1522; 12621; 19006; 50.08418978491242; 19.991613214772013
-18295; 3823; -5761; 9120; -28584; -32388; 50.08418978491242; 19.991613214772013
-2201; 24425; 3091; -3044; -22198; -3192; 50.08418978491242; 19.991613214772013
22520; 13746; -16058; -32536; 27524; 21904; 50.08418978491242; 19.991613214772013
1535; 19459; -20792; 19136; 10952; -6236; 50.08418978491242; 19.991613214772013
390; -15858; 32762; 10952; -27673; -27820; 50.08418978491242; 19.991613214772013
22669; -6093; -17130; 19767; -23868; 21140; 50.08418978491242; 19.991613214772013
24812; 28004; 17050; 19152; 9429; -29195; 50.084200934848084; 19.99158339924594
-23028; 12451; 3473; -24016; -30424; -27072; 50.084200934848084; 19.99158339924594
-29132; 28710; -3926; -10800; -1984; 8496; 50.084200934848084; 19.99158339924594
-23036; -2430; 12317; -28136; 8056; -28896; 50.084200934848084; 19.99158339924594
8561; -30199; -30400; -32368; 18560; -3792; 50.084200934848084; 19.99158339924594
-16535; 13206; -5462; 25248; 6536; 16112; 50.084200934848084; 19.99158339924594
12754; 26634; -17819; -19328; -26928; -30272; 50.084200934848084; 19.99158339924594
18160; 3449; -8892; -19304; -9576; 8667; 50.084200934848084; 19.99158339924594
28540; 23744; 32695; 23720; -17335; 24332; 50.084206315198855; 19.9915507861712
12289; 25023; 2851; 27376; -27968; -13072; 50.084206315198855; 19.9915507861712
929; -23930; 26981; -13696; -31776; 25242; 50.084206315198855; 19.9915507861712
-16318; 8780; 13778; 16724; -17944; -10040; 50.084206315198855; 19.9915507861712
12987; -1143; 24607; 12640; -24944; 19916; 50.084206315198855; 19.9915507861712
14581; 2527; 4378; 9280; -28284; 30104; 50.084206315198855; 19.9915507861712
8486; 31143; -19563; -25248; -26152; 15960; 50.084206315198855; 19.9915507861712
1004; 8174; -3627; 32560; -21904; -29808; 50.084206315198855; 19.9915507861712
-27911; -27143; 20413; 25092; -26764; 26002; 50.08421179119911; 19.99152261652045
19696; -23490; -30093; -7608; -29656; 12920; 50.08421179119911; 19.99152261652045
-10223; 6181; -23009; -29984; -31776; -24628; 50.08421179119911; 19.99152261652045
28781; -23938; 16062; 32224; 22810; -27524; 50.08421179119911; 19.99152261652045
-20205; -15393; 7824; 29195; -1670; 15813; 50.08421179119911; 19.99152261652045
-29514; -15709; -14920; 10656; 15664; -19767; 50.08421179119911; 19.99152261652045
1843; -30589; -10802; -3656; 3340; 16872; 50.08421179119911; 19.99152261652045
-25552; 2236; -29029; -3954; -13532; -7907; 50.08421179119911; 19.99152261652045
28698; -13566; -6832; -12472; -24332; -18712; 50.08421179119911; 19.99152261652045
-21276; 692; -9656; -15052; -23104; 10190; 50.08421179119911; 19.99152261652045
-13802; 32513; 11711; 28435; -1816; 8520; 50.084219730904344; 19.991488891756372
17554; 13065; 5532; 612; 8224; -26448; 50.084219730904344; 19.991488891756372
28316; 19459; 24831; -30400; 31480; -22344; 50.084219730904344; 19.991488891756372
-28982; -27841; 20098; 8352; 6088; 7608; 50.084219730904344; 19.991488891756372
29545; -31337; 28352; -13382; -5328; 24628; 50.084219730904344; 19.991488891756372
-19673; 11371; 17125; 6560; 17024; 20824; 50.084219730904344; 19.991488891756372
6725; -32732; 15971; 4880; 18544; -6996; 50.084219730904344; 19.991488891756372
-28517; -32633; -13924; -31626; 15813; 17335; 50.084219730904344; 19.991488891756372
17929; 27705; 6056; 16872; -2728; -25680; 50.084219730904344; 19.991488891756372
-19358; -10909; 24374; -15808; -12448; -26592; 50.08422264320833; 19.991455878220382
32061; -25399; 24599; -27820; -7907; 8667; 50.08422264320833; 19.991455878220382
8561; -28215; -27277; -7608; -15376; 30400; 50.08422264320833; 19.991455878220382
-30817; 22673; 29482; 8656; 29936; -19168; 50.08422264320833; 19.991455878220382
-7773; -18524; 25969; 8976; 5936; 27072; 50.08422264320833; 19.991455878220382
-11502; 9245; 17739; 18560; 17188; -2576; 50.08422264320833; 19.991455878220382
-32719; -7612; 23760; 17776; -14904; -8368; 50.08422264320833; 19.991455878220382
-2965; 30454; 9261; -24481; -14142; 15813; 50.08422264320833; 19.991455878220382
-12806; 21377; -28498; -21140; -21140; 30104; 50.08422264320833; 19.991455878220382
390; 4827; -27194; -24481; -18096; 18392; 50.08422799607091; 19.99142696616685
-20819; -11739; 20787; -19767; -2896; 3488; 50.08422799607091; 19.99142696616685
27544; 8016; 7733; -21584; 13696; 6560; 50.08422799607091; 19.99142696616685
-18378; 4047; 29564; 3340; 17188; -32536; 50.08422799607091; 19.99142696616685
5580; -2281; -347; -32536; -24184; -21904; 50.08422799607091; 19.99142696616685
-1894; -20201; -20717; -4100; -4714; 28584; 50.08422799607091; 19.99142696616685
-16161; 2079; 26816; 28284; -16724; 14752; 50.08422799607091; 19.99142696616685
-12656; 24732; -22469; -20232; 31480; -2432; 50.08423627239285; 19.99140024432822
-14259; -7388; 12549; -26616; 23104; -29048; 50.08423627239285; 19.99140024432822
12140; -27758; 30395; -3804; -30718; 3954; 50.08423627239285; 19.99140024432822
14314; -27008; 23526; -5624; 320; -15504; 50.08423627239285; 19.99140024432822
-23485; -3111; 18113; -31936; -29344; 5476; 50.08423627239285; 19.99140024432822
27095; 12376; -10644; -5476; -24628; -24628; 50.08423627239285; 19.99140024432822
-2509; -3186; -7147; 31184; 8368; 17944; 50.08423627239285; 19.99140024432822
-7541; 9021; 5524; -1; -1; -1; 50.08423627239285; 19.99140024432822
3063; -7695; 29025; 19767; -11712; -11560; 50.08424446735612; 19.991371826350026
-8687; -1202; -7132; -4248; 15960; 15813; 50.08424446735612; 19.991371826350026
-10746; -20973; -22253; -13532; 32536; -32240; 50.08424446735612; 19.991371826350026
-25245; 5666; 2851; -10338; 4416; 18712; 50.08424446735612; 19.991371826350026
13825; 20074; -19421; 18880; 9744; 10512; 50.08424446735612; 19.991371826350026
-27986; 28469; 1413; -24184; 13532; -23720; 50.08424446735612; 19.991371826350026
-15637; -5320; -25533; -19024; 25092; -12768; 50.08424446735612; 19.991371826350026
-28360; 28544; 3465; -13232; 13532; 2432; 50.08424446735612; 19.991371826350026
-13412; -16232; -23150; 22050; 17632; 12920; 50.08425536401892; 19.991345176337155
-20587; 27174; 18802; 30104; 6536; 30400; 50.08425536401892; 19.991345176337155
14814; 25040; 25064; 3488; 25072; 5456; 50.08425536401892; 19.991345176337155
-23118; -13948; 19716; 3044; 20380; -12621; 50.08425536401892; 19.991345176337155
-14184; -9597; 23154; -31200; 31184; -29344; 50.08425536401892; 19.991345176337155
28623; -9830; -11790; -26764; 28136; 26464; 50.08425536401892; 19.991345176337155
-30884; 16818; -32219; 5476; -29048; 8667; 50.08425536401892; 19.991345176337155
4741; -22950; -30242; -15376; 25840; 7136; 50.08425536401892; 19.991345176337155
-12963; 10765; 19874; 8816; -26320; -17648; 50.08426123511962; 19.991315898075687
9399; 1929; 23162; 28752; 14176; 30752; 50.08426123511962; 19.991315898075687
9324; 9769; -17960; -27984; 21436; -21904; 50.08426123511962; 19.991315898075687
20535; 5741; 15904; -9896; -2752; -21600; 50.08426123511962; 19.991315898075687
-24556; -9904; 21393; 30568; 3192; -23572; 50.08426123511962; 19.991315898075687
8253; 21145; 3091; 17484; -4416; 1056; 50.08426123511962; 19.991315898075687
-10746; -17835; 6977; -27820; -21752; 5152; 50.08426123511962; 19.991315898075687
-5100; 9403; -26746; -13382; -18858; -6996; 50.08426123511962; 19.991315898075687
-14558; 6264; -31861; 31480; -12472; -30718; 50.08426123511962; 19.991315898075687
-4950; -29278; -19953; -21752; -13696; 15504; 50.08426705545977; 19.991285397806955
-25170; -14247; 21011; -31160; 12328; -21728; 50.08426705545977; 19.991285397806955
-4029; -14413; -8285; 5792; 13992; 4568; 50.08426705545977; 19.991285397806955
-11660; -4100; 19566; -10656; -17484; -22810; 50.08426705545977; 19.991285397806955
32277; -16000; -24147; 27673; -23104; -7440; 50.08426705545977; 19.991285397806955
2681; -17386; 13687; -15664; 19006; -28284; 50.08426705545977; 19.991285397806955
24048; 4288; -1186; 27673; 25092; 9429; 50.08426705545977; 19.991285397806955
30683; -28372; 409; -24628; -3340; 15813; 50.08427611917971; 19.99125381506971
25268; 28079; 23453; -15376; 32536; 19767; 50.08427611917971; 19.99125381506971
-15862; 32754; 267; -25242; 29048; -12008; 50.08427611917971; 19.99125381506971
22977; 18712; -13775; 14304; -18244; 23424; 50.08427611917971; 19.99125381506971
-26234; -4880; -13401; 6996; 25242; -4100; 50.08427611917971; 19.99125381506971
8096; 19094; -22619; -17040; 8056; 30866; 50.08427611917971; 19.99125381506971
-3580; -2729; -20185; 14292; 761; -22958; 50.08427611917971; 19.99125381506971
20917; 28162; -31861; -29956; -20676; 1376; 50.08427611917971; 19.99125381506971
6119; -10735; -12695; 29344; 5624; 16574; 50.08427611917971; 19.99125381506971
18243; 7643; -15759; -19328; 31160; 9120; 50.08427611917971; 19.99125381506971
32585; 21377; -10345; -10190; -30424; -14608; 50.08428085085092; 19.991221219228436
-15397; 32139; -26746; -31016; -12472; -13992; 50.08428085085092; 19.991221219228436
17936; 23437; -14688; -6088; -612; -20232; 50.08428085085092; 19.991221219228436
28466; -6624; 19019; 17536; -1056; -16724; 50.08428085085092; 19.991221219228436
-25395; -30739; -21489; 12768; 24944; -17632; 50.08428085085092; 19.991221219228436
4434; -10128; 21634; 16424; 16574; 6996; 50.08428085085092; 19.991221219228436
10695; -17319; 14684; -4568; 3792; 17776; 50.08428085085092; 19.991221219228436
-13113; 409; 22315; -4248; 26002; -24481; 50.08428085085092; 19.991221219228436
-17614; 32663; -30333; 9576; -13532; -10040; 50.08428779824563; 19.991190901298825
-27222; 16719; 10340; 7744; -19936; -6848; 50.08428779824563; 19.991190901298825
19846; 22665; -24993; 29195; -27984; -8368; 50.08428779824563; 19.991190901298825
-524; -9755; 32305; -27968; 27524; 7907; 50.08428779824563; 19.991190901298825
-22646; -11357; 25438; 29488; -30256; -2432; 50.08428779824563; 19.991190901298825
25260; -6923; 3847; -14142; -2112; 15216; 50.08428779824563; 19.991190901298825
7647; 11230; -19114; 29344; 12621; 18244; 50.08428779824563; 19.991190901298825
-4875; -1052; 26891; 4272; 11248; -6996; 50.08429657564722; 19.991158403278554
-6553; 10682; -14621; -7888; -2432; 23572; 50.08429657564722; 19.991158403278554
3138; 23669; 15605; -21904; -27968; 21904; 50.08429657564722; 19.991158403278554
14506; -27301; 11569; -13408; -24016; -7292; 50.08429657564722; 19.991158403278554
-9069; 14435; -18957; 24944; -11860; 13532; 50.08429657564722; 19.991158403278554
-12731; 18081; 3232; -7440; -26002; -22050; 50.08429657564722; 19.991158403278554
5505; -14023; -31471; -6704; -19152; 6996; 50.08429657564722; 19.991158403278554
-22879; -29967; -30250; 5920; -15960; -5624; 50.08429657564722; 19.991158403278554
-32644; -25316; 23228; 16112; -25242; -19767; 50.084303888482864; 19.991125371095972
22827; -8924; 20248; -22344; 13992; 3656; 50.084303888482864; 19.991125371095972
5970; 21685; -16283; 23408; 8352; -15376; 50.084303888482864; 19.991125371095972
19688; 26484; -2946; -25392; 21728; -28896; 50.084303888482864; 19.991125371095972
-13038; -29435; -24537; 18712; 11560; -32688; 50.084303888482864; 19.991125371095972
-12117; -13932; 28958; -30104; -4100; -5008; 50.084303888482864; 19.991125371095972
-5564; 11355; 28784; 7136; -31184; 25680; 50.084303888482864; 19.991125371095972
-23103; -10892; 26135; -30866; -612; 26912; 50.084303888482864; 19.991125371095972
9549; 30620; -12239; -8352; 320; 25092; 50.08430954205053; 19.991099112504546
9923; -8526; -14979; -21120; -20064; 6704; 50.08430954205053; 19.991099112504546
-11668; -24152; -24520; -21408; -31328; 25704; 50.08430954205053; 19.991099112504546
5430; 12683; -5670; -29120; -10952; 15352; 50.08430954205053; 19.991099112504546
15578; -2836; -30266; 29956; 5152; 19304; 50.08430954205053; 19.991099112504546
-13345; 2984; -21256; -7907; -6536; -18244; 50.08430954205053; 19.991099112504546
-6927; 27257; -189; 24800; 23424; 12328; 50.08430954205053; 19.991099112504546
-19358; 29367; 3075; 8544; -16574; 26764; 50.08431583780383; 19.991068158007845
23292; -28680; 28269; 22224; -3044; 22496; 50.08431583780383; 19.991068158007845
-8845; -24777; 15987; 5176; 5768; 12621; 50.08431583780383; 19.991068158007845
24040; -7695; 17432; -2728; -31480; 2576; 50.08431583780383; 19.991068158007845
27785; 22358; -11400; 32688; 24481; -26912; 50.08431583780383; 19.991068158007845
19157; -22277; 24465; -11872; -29808; -15664; 50.08431583780383; 19.991068158007845
-14259; 27713; 31931; -30272; 21584; 24776; 50.08431583780383; 19.991068158007845
4816; -26454; -6675; 29195; 8368; -17024; 50.08431583780383; 19.991068158007845
7639; -20217; 3016; -8968; 29048; -4248; 50.08431583780383; 19.991068158007845
-27687; 11911; 16826; -13382; -15052; 29195; 50.08431583780383; 19.991068158007845
27021; 3598; -4308; 24160; -29048; 22958; 50.08432269790851; 19.991038579667403
-21957; 26559; 18420; 31626; 28284; -20527; 50.08432269790851; 19.991038579667403
-1; -1; -1; -16112; -24332; 14440; 50.08432269790851; 19.991038579667403
-31955; -26147; 26517; -3044; 15352; -8224; 50.08432269790851; 19.991038579667403
-20138; -18150; 1480; -1; -1; -1; 50.08432269790851; 19.991038579667403
5961; -8152; 5757; 10952; 14752; -26152; 50.08432269790851; 19.991038579667403
-12424; 10316; 5765; -23120; -908; 17335; 50.084329126059444; 19.99100731021683
12289; -985; -23158; -23424; 4714; 20380; 50.084329126059444; 19.99100731021683
-19366; -2040; -13085; -23424; -2576; -17335; 50.084329126059444; 19.99100731021683
20535; 7800; -16897; -22496; 13992; 23280; 50.084329126059444; 19.99100731021683
-18677; -11972; -18965; 15520; -10800; 5768; 50.084329126059444; 19.99100731021683
-9526; -18756; -21174; 25242; 26912; 31626; 50.084329126059444; 19.99100731021683
-28368; 14269; -27809; 12008; 23104; -31328; 50.084329126059444; 19.99100731021683
-14251; 14451; -10786; -25092; -1984; 27208; 50.084329126059444; 19.99100731021683
21598; 27016; -26521; 31328; -21289; 3192; 50.084329126059444; 19.99100731021683
-4261; 13439; -4922; -26616; 28728; 17776; 50.084329126059444; 19.99100731021683
18318; -8451; -22926; -14440; 20976; -12176; 50.08433727727116; 19.990978567007183
-3887; 13364; 2169; -25392; 14292; 21436; 50.08433727727116; 19.990978567007183
15877; 27473; 22315; 25392; -30256; 18858; 50.08433727727116; 19.990978567007183
15503; 15806; -28423; 16424; -7584; -4248; 50.08433727727116; 19.990978567007183
20842; 28776; 25670; -30128; 29344; -31480; 50.08433727727116; 19.990978567007183
-29597; 7261; 2933; 24016; -31776; -20676; 50.08433727727116; 19.990978567007183
29844; -22186; -7513; -32064; 6236; -11099; 50.08433727727116; 19.990978567007183
15428; -13417; 13770; 16424; 2728; 23256; 50.08433727727116; 19.990978567007183
-30278; -14563; 18495; 29195; -14752; -32088; 50.08434461327846; 19.99094767619775
7481; 16877; 24225; 28880; -8667; -8056; 50.08434461327846; 19.99094767619775
20842; -11806; -14605; 32388; 3488; 6536; 50.08434461327846; 19.99094767619775
16790; 18172; -25832; 18240; 17335; -20527; 50.08434461327846; 19.99094767619775
-4261; -22568; 26741; 23720; -27064; -31920; 50.08434461327846; 19.99094767619775
-27679; 12226; -24147; 22664; -12472; 10338; 50.08434461327846; 19.99094767619775
-32262; -32101; -24379; -29488; -25092; 13680; 50.08434461327846; 19.99094767619775
-15322; 27930; -12329; -2256; 27064; 12768; 50.08434461327846; 19.99094767619775
22595; 21220; -3627; 12472; -2752; 14736; 50.08434461327846; 19.99094767619775
14806; -14090; 3548; -5476; 29808; -6384; 50.08434901344526; 19.990917590938636
-24938; -15177; -11333; -29760; -15200; 22368; 50.08434901344526; 19.990917590938636
-6403; 850; -945; 23072; -16724; 24332; 50.08434901344526; 19.990917590938636
14739; -31802; 5532; 4248; 5768; 8968; 50.08434901344526; 19.990917590938636
17255; 14585; 2933; -15200; -31480; 17335; 50.08434901344526; 19.990917590938636
-32262; -24943; -31786; 10040; 29956; -32536; 50.08434901344526; 19.990917590938636
-11585; -4108; -26746; -27072; 4714; 24481; 50.08434901344526; 19.990917590938636
16873; -30199; 1638; 5768; -26764; 8056; 50.08434901344526; 19.990917590938636
16034; 2461; -3702; -20527; -6996; -612; 50.08434901344526; 19.990917590938636
-31116; -10369; -31944; 24496; 10338; 19006; 50.084356148872075; 19.990888936243906
24729; 17790; 31234; 7760; 10040; 5476; 50.084356148872075; 19.990888936243906
10238; 20381; 10183; -18560; 22958; -15664; 50.084356148872075; 19.990888936243906
-17614; -15626; 16211; -26002; -26152; -5476; 50.084356148872075; 19.990888936243906
11301; -29593; -13093; 31040; 25704; 28136; 50.084356148872075; 19.990888936243906
24422; -2505; 17208; -21904; 17040; -12920; 50.084356148872075; 19.990888936243906
-3729; -26163; 17881; 22640; -12621; 22198; 50.084356148872075; 19.990888936243906
-30734; 17806; 17582; -20384; 19472; -5768; 50.084356148872075; 19.990888936243906
-26151; 30919; 29864; 5176; 5328; 9136; 50.08436179309524; 19.99085683934943
11915; 8938; 21543; 12920; 10488; 6384; 50.08436179309524; 19.99085683934943
31289; 12683; -30183; -31312; -26764; -19767; 50.08436179309524; 19.99085683934943
29462; -48; -16523; 31936; 6996; 10040; 50.08436179309524; 19.99085683934943
1618; -7006; 23677; -2136; -15376; -26616; 50.08436179309524; 19.99085683934943
-10821; 22457; -17744; 7292; 21584; -32088; 50.08436179309524; 19.99085683934943
12979; -23781; -16748; -22512; 27968; -27232; 50.08436179309524; 19.99085683934943
10695; 14734; -9813; -20848; 27968; -22512; 50.08436179309524; 19.99085683934943
9616; -8526; 20405; -19620; 29344; -31328; 50.08436889027578; 19.990827411229603
5804; 4213; 32529; 19792; -2880; -8496; 50.08436889027578; 19.990827411229603
4284; 27556; -12936; -15200; 20080; 21752; 50.08436889027578; 19.990827411229603
26639; -21962; -26671; -1200; 29956; -908; 50.08436889027578; 19.990827411229603
27095; -17768; -15153; -3804; -6536; 21140; 50.08436889027578; 19.990827411229603
29844; 26260; -22544; -19006; 31328; -10488; 50.08436889027578; 19.990827411229603
6119; 19850; -31471; 761; -1376; 21436; 50.08436889027578; 19.990827411229603
19232; -30515; -16988; 16724; 19916; 29344; 50.08436889027578; 19.990827411229603
-29821; 8406; -29270; 15216; 9280; 10952; 50.084376973023836; 19.990795831595047
2449; 28162; -32542; -19620; 16872; 27968; 50.084376973023836; 19.990795831595047
-16700; 1787; -31321; 3792; 12472; -27524; 50.084376973023836; 19.990795831595047
-10904; 22125; -17677; 16280; -2576; -26296; 50.084376973023836; 19.990795831595047
2532; -14862; 28950; -16574; 24184; -908; 50.084376973023836; 19.990795831595047
-20130; 27788; -1028; 19304; 12472; 11248; 50.084376973023836; 19.990795831595047
-9301; 21759; 14451; -25536; 7760; -26152; 50.084376973023836; 19.990795831595047
-2883; -28829; -25525; 32240; -18392; 32088; 50.084376973023836; 19.990795831595047
29686; -21580; -16066; 8656; 3192; -30718; 50.08438402094203; 19.990766374840117
25028; 27414; 22083; -18880; 9280; 27376; 50.08438402094203; 19.990766374840117
-29207; 7875; -8667; -3954; 29656; 8224; 50.08438402094203; 19.990766374840117
-13794; -15933; 25205; 27820; 10190; -1670; 50.08438402094203; 19.990766374840117
12904; -19047; -31329; -14142; -20676; -25536; 50.08438402094203; 19.990766374840117
13377; 28162; -3627; -7872; -29048; 22050; 50.08438402094203; 19.990766374840117
-10730; -13059; -24312; -27064; 6368; 1504; 50.08438402094203; 19.990766374840117
-13727; 14609; 22854; 20824; 25984; 1504; 50.08438402094203; 19.990766374840117
32196; -28597; -31105; -28435; 9429; 16574; 50.08438402094203; 19.990766374840117
-12881; -14945; 29556; 30880; 5176; 17344; 50.08439078627502; 19.990735201657827
2839; 5658; -24147; 448; 296; 30104; 50.08439078627502; 19.990735201657827
-5482; 30620; -32691; -10352; 13072; -32400; 50.08439078627502; 19.990735201657827
-28683; 23437; -6691; 29656; -25680; -27360; 50.08439078627502; 19.990735201657827
-15090; -11507; 1488; 31480; -10952; -10190; 50.08439078627502; 19.990735201657827
-5490; -29053; 8348; 14440; -3656; -30424; 50.08439078627502; 19.990735201657827
2673; -21190; 22000; -16256; 28896; -19152; 50.08439078627502; 19.990735201657827
1760; -14405; -20792; 8032; -1522; 18392; 50.08439078627502; 19.990735201657827
12439; 16569; -12487; 20544; 28896; -9576; 50.08439078627502; 19.990735201657827
-5864; -14712; 3548; 28728; 29504; 25704; 50.08439746311398; 19.99070597247511
29379; -17012; -23249; -23868; 14608; -6832; 50.08439746311398; 19.99070597247511
13908; -6317; -12255; 19916; -13382; -11860; 50.08439746311398; 19.99070597247511
-2127; -20201; 15290; -8080; -6236; -19767; 50.08439746311398; 19.99070597247511
17861; -16547; -15393; -23408; -13532; -30104; 50.08439746311398; 19.99070597247511
-17381; -14239; -15310; 29344; 30568; 28136; 50.08439746311398; 19.99070597247511
29005; -30715; 12557; -18544; -21140; 21904; 50.08439746311398; 19.99070597247511
19921; -26171; -23249; -19488; 16112; -612; 50.08439746311398; 19.99070597247511
26489; -5013; 30635; 27984; -26320; 29936; 50.08440507012406; 19.990673146711874
31364; -32475; -18126; 18592; 8667; 16424; 50.08440507012406; 19.990673146711874
-1363; 17699; -6234; -25984; -24481; -13680; 50.08440507012406; 19.990673146711874
-18071; 2461; -18732; 30718; -10190; 31626; 50.08440507012406; 19.990673146711874
11525; -12736; 6288; 17484; 27064; 11392; 50.08440507012406; 19.990673146711874
21748; -12263; 27048; -14904; -9280; -320; 50.08440507012406; 19.990673146711874
13660; 31525; 6213; -18544; 1072; -15352; 50.08440507012406; 19.990673146711874
2607; 15341; -16897; 13382; 14608; 8368; 50.084410390482105; 19.990644668627827
20153; -7089; -10719; -16592; -23868; -31480; 50.084410390482105; 19.990644668627827
-24780; 4063; -10943; -19916; -29048; -13532; 50.084410390482105; 19.990644668627827
21905; -19520; 6131; -7744; 30718; -21436; 50.084410390482105; 19.990644668627827
-15397; -32275; 30021; -27064; -2432; -5008; 50.084410390482105; 19.990644668627827
-20977; -31428; -16216; -5624; -11712; 30866; 50.084410390482105; 19.990644668627827
4209; 18346; -2855; -9920; 11712; -26764; 50.084410390482105; 19.990644668627827
-22115; 19152; 31234; 31160; -23888; 29792; 50.084410390482105; 19.990644668627827
7706; 5217; -12471; -8520; 12944; 2896; 50.08441697836569; 19.99061109160626
13593; -2497; -15676; -25984; -296; -21728; 50.08441697836569; 19.99061109160626
-15704; -23888; 20862; -31312; -27524; -7146; 50.08441697836569; 19.99061109160626
23358; -25009; -11857; 11536; -32088; -3656; 50.08441697836569; 19.99061109160626
-18461; 2685; -20177; -10040; -17800; 10632; 50.08441697836569; 19.99061109160626
-300; 24433; -11408; 13696; -14584; -5152; 50.08441697836569; 19.99061109160626
23823; -27766; -26206; -14142; -25536; -14440; 50.08441697836569; 19.99061109160626
-25320; 2834; -12172; 14272; 1816; 2880; 50.08441697836569; 19.99061109160626
6725; 18928; -16066; 30718; -2432; -25392; 50.08441697836569; 19.99061109160626
27328; -13027; 23610; -2576; 11099; -14904; 50.08441697836569; 19.99061109160626
-29364; -22194; -20882; -3216; 22810; -6236; 50.0844250733023; 19.99057997999344
7647; 18014; 13156; 14608; -9280; 8816; 50.0844250733023; 19.99057997999344
-18453; -4257; -11640; -26464; -464; 7584; 50.0844250733023; 19.99057997999344
21216; 9544; 19940; 9744; 18096; -13680; 50.0844250733023; 19.99057997999344
12223; -19894; -16291; 3954; 4568; 14142; 50.0844250733023; 19.99057997999344
5737; -5785; 16361; -9280; -27820; 6384; 50.0844250733023; 19.99057997999344
-9526; -27534; 1713; -31016; -15960; -5768; 50.0844250733023; 19.99057997999344
-524; -7620; 8738; -4416; 22958; 14292; 50.0844250733023; 19.99057997999344
-4568; -14023; 24682; 30866; 19767; -7146; 50.08443713151891; 19.99055493576179
-13263; 26327; -13011; -23888; 6384; 31626; 50.08443713151891; 19.99055493576179
-3879; 22291; 25288; -31920; -20527; -3192; 50.08443713151891; 19.99055493576179
24961; 22598; 2402; 20848; 21289; -8056; 50.08443713151891; 19.99055493576179
9242; -21347; 24906; 12920; -908; -3192; 50.08443713151891; 19.99055493576179
5505; 28544; 27655; -10952; 16574; 29956; 50.08443713151891; 19.99055493576179
32510; -29037; 20637; -1522; 26764; 14142; 50.08443713151891; 19.99055493576179
29537; 28993; 2784; -12480; -31480; -18560; 50.08443713151891; 19.99055493576179
-21882; 15656; 32545; -12608; 9872; -1376; 50.08443713151891; 19.99055493576179
-831; -26620; 4985; -24928; 8968; -10040; 50.08443713151891; 19.99055493576179
-4037; 5367; -29860; 6528; 6536; 18544; 50.08444279408164; 19.990518014522003
1992; 23728; 5150; -10488; -13848; 2576; 50.08444279408164; 19.990518014522003
-20205; -25848; -29411; -12920; -10800; -1224; 50.08444279408164; 19.990518014522003
-24556; 27481; 25438; -22496; -25242; 32388; 50.08444279408164; 19.990518014522003
-5249; -22576; 3922; 28896; 8056; 10338; 50.08444279408164; 19.990518014522003
12746; 12459; 25670; -9744; 28752; 10800; 50.08444279408164; 19.990518014522003
8710; 18089; -2639; -761; -7292; 29808; 50.08444279408164; 19.990518014522003
-11809; 20381; -23690; 22198; 29344; 15052; 50.08444279408164; 19.990518014522003
4898; -10203; -21323; 23104; -10512; 7584; 50.084448579602515; 19.990490083799095
-31656; 32588; 7052; 24481; -21140; -6088; 50.084448579602515; 19.990490083799095
21980; -10361; -3403; -25242; 19620; 3954; 50.084448579602515; 19.990490083799095
11226; 31600; -8128; -16724; 16280; -24776; 50.084448579602515; 19.990490083799095
-10971; 3291; -25674; -18392; 4568; 22810; 50.084448579602515; 19.990490083799095
2681; 19468; -23158; 13382; 19006; 3192; 50.084448579602515; 19.990490083799095
18700; -10369; -23083; -2136; 8968; 25392; 50.084448579602515; 19.990490083799095
-26009; 10466; 24906; 23104; 6996; -1670; 50.084448579602515; 19.990490083799095
-18909; 32588; 26052; -3954; 31184; 9896; 50.084448579602515; 19.990490083799095
30151; -6699; -8352; -23424; -15200; 22050; 50.084448579602515; 19.990490083799095
-23410; 1232; 2933; 30104; -2136; -6848; 50.084455638793436; 19.990461416474165
-6628; -25159; 24449; 908; 14292; 21436; 50.084455638793436; 19.990461416474165
9624; 1846; 19035; 8352; -23720; -30104; 50.084455638793436; 19.990461416474165
-5407; -17685; 4079; 26296; -8816; 19620; 50.084455638793436; 19.990461416474165
-6320; -29585; 25670; 5624; -6384; -21289; 50.084455638793436; 19.990461416474165
-32262; -23481; -5387; 18416; 26002; -22344; 50.084455638793436; 19.990461416474165
22520; 16868; 4378; 8816; 5768; 1056; 50.084455638793436; 19.990461416474165
27702; 10100; -26887; 10176; -18858; 27968; 50.08446207342148; 19.990431108595367
24347; -26836; 26052; -3656; 28136; -4714; 50.08446207342148; 19.990431108595367
-23028; 22523; 890; 5152; -29808; -11408; 50.08446207342148; 19.990431108595367
-26474; 5110; -3619; -27328; -21289; -11392; 50.08446207342148; 19.990431108595367
32659; 2826; 23087; 7146; -32688; 7146; 50.08446207342148; 19.990431108595367
-15704; 19767; -13235; -22032; -16872; 19328; 50.08446207342148; 19.990431108595367
-22497; 1771; 1563; 26448; 29048; -2576; 50.08446207342148; 19.990431108595367
-25702; 25496; 29564; 10016; -31160; 25092; 50.08446207342148; 19.990431108595367
10396; 6796; 3855; 24332; 20676; 30718; 50.08446907724822; 19.99040014199923
-25387; 23811; -13160; -5312; -24496; 12160; 50.08446907724822; 19.99040014199923
-16393; 6496; 5225; -21584; 19904; -20080; 50.08446907724822; 19.99040014199923
1685; -24627; 16519; -31936; -16424; 31016; 50.08446907724822; 19.99040014199923
-23560; -14480; -28490; 6236; -32240; 18858; 50.08446907724822; 19.99040014199923
30376; 13281; -7596; -23256; 8968; -20380; 50.08446907724822; 19.99040014199923
26257; -23399; 31549; 31312; 2576; -30424; 50.08446907724822; 19.99040014199923
-9308; -17236; 4918; 2112; -13382; 2576; 50.08446907724822; 19.99040014199923
-30510; 26260; -29569; 27232; 30568; 21904; 50.08446907724822; 19.99040014199923
-26840; -13874; 7285; 13232; 18560; -18392; 50.08446907724822; 19.99040014199923
-18917; -27234; 18271; -14292; 29344; -16574; 50.084476254040425; 19.990368198663734
-17307; 18014; 25138; -4272; -23256; 23572; 50.084476254040425; 19.990368198663734
-10746; -29278; 19724; 23280; -908; -20676; 50.084476254040425; 19.990368198663734
-28525; -16173; 18495; 28896; 29048; -15200; 50.084476254040425; 19.990368198663734
929; 4670; -22544; -18712; 18712; -22198; 50.084476254040425; 19.990368198663734
7025; -18449; -29644; -8672; -6536; -21436; 50.084476254040425; 19.990368198663734
-32487; -28597; 9037; -21289; -14440; -11392; 50.084476254040425; 19.990368198663734
-20579; -24021; 19184; 7146; 31480; 7760; 50.08448294532999; 19.99033582709566
-13337; -26230; -13924; -30718; -30424; -21140; 50.08448294532999; 19.99033582709566
21291; 28245; 3922; -1816; 6680; 12008; 50.08448294532999; 19.99033582709566
9017; 468; -4167; -15813; -1984; 23868; 50.08448294532999; 19.99033582709566
-24099; 28926; -20492; 18544; -32704; 14584; 50.08448294532999; 19.99033582709566
27469; -4556; -18657; 5624; -16574; 25242; 50.08448294532999; 19.99033582709566
-3040; -22442; 9261; 5328; -24332; 13382; 50.08448294532999; 19.99033582709566
-5639; 4977; -29868; 7264; 20824; 12448; 50.08448294532999; 19.99033582709566
25036; -19122; 7600; 2576; -25092; 296; 50.08448294532999; 19.99033582709566
2823; -23473; 31715; 4248; 32536; 15960; 50.084492634066045; 19.990306563278494
5198; -20300; 2378; -10368; -6088; 8976; 50.084492634066045; 19.990306563278494
1618; -19686; 4619; 26448; 21600; 26764; 50.084492634066045; 19.990306563278494
3520; 18487; 20795; -12784; 13232; -16424; 50.084492634066045; 19.990306563278494
-18145; -3029; 29182; 4248; -17335; 24160; 50.084492634066045; 19.990306563278494
2532; -8700; 10565; 320; 26764; 21600; 50.084492634066045; 19.990306563278494
11143; 13124; 6820; 29664; -20976; 3504; 50.084492634066045; 19.990306563278494
31372; 31525; -23906; 21568; -3192; -7312; 50.084492634066045; 19.990306563278494
-25245; 24126; 24690; -2136; -8520; 30104; 50.084492634066045; 19.990306563278494
1236; 10989; -13775; 19006; -32704; 4248; 50.084502630625686; 19.990278791770397
-26998; 20921; -26738; 296; -4714; 24628; 50.084502630625686; 19.990278791770397
-26466; -25848; -22004; -21140; -761; 28284; 50.084502630625686; 19.990278791770397
-10140; -4490; 12467; -20544; -10928; 23280; 50.084502630625686; 19.990278791770397
-3107; -10137; 22323; -12640; 23572; 2432; 50.084502630625686; 19.990278791770397
-24930; -10361; -23615; 17188; -11120; -12944; 50.084502630625686; 19.990278791770397
6418; 15498; 16660; 26448; -8976; 9120; 50.084502630625686; 19.990278791770397
22819; -11200; -4474; 1984; -22198; 24481; 50.084502630625686; 19.990278791770397
-16850; -9215; -26214; -3804; 28136; 21904; 50.084502630625686; 19.990278791770397
-32487; -25848; -20335; -26464; 3954; 18096; 50.084506674701274; 19.990247155971346
14432; 10084; -32400; 9280; -17188; 20676; 50.084506674701274; 19.990247155971346
-5100; -7463; 6280; -8224; -6384; -9429; 50.084506674701274; 19.990247155971346
31596; -29884; 2477; 19304; 24332; 8520; 50.084506674701274; 19.990247155971346
24579; -12727; 2394; 27984; 25092; 23424; 50.084506674701274; 19.990247155971346
-8455; -9065; -13857; -17776; -16574; 29048; 50.084506674701274; 19.990247155971346
-12424; -8227; -11873; -18244; -612; -30568; 50.084506674701274; 19.990247155971346
-7691; -4183; 25438; -5920; 10338; -18096; 50.084506674701274; 19.990247155971346
15959; 28320; 12159; 11872; -18712; -3804; 50.084506674701274; 19.990247155971346
22520; -4033; -28199; 22810; 31016; -28752; 50.084513689097335; 19.990218546239447
-27529; -28207; -17130; 20380; -10952; 20824; 50.084513689097335; 19.990218546239447
-2741; 19468; -32392; 6536; -1670; 27673; 50.084513689097335; 19.990218546239447
-17539; 28536; 18952; -23408; -20824; -23256; 50.084513689097335; 19.990218546239447
-3729; -21804; -6517; -32560; 30424; 32088; 50.084513689097335; 19.990218546239447
-11361; 28544; 5757; -6536; 2592; -15648; 50.084513689097335; 19.990218546239447
18550; 13281; 15373; -19472; -30256; -22344; 50.084513689097335; 19.990218546239447
4591; 31907; -23914; 24160; -11860; -9429; 50.084513689097335; 19.990218546239447
26107; 20381; 29639; 21752; 25680; -13232; 50.084516847733234; 19.990188198363274
-7391; 10773; -15834; 5152; -9136; 17776; 50.084516847733234; 19.990188198363274
-12581; -1210; -2863; -4714; -5328; 30866; 50.084516847733234; 19.990188198363274
18550; -20052; 22921; -11099; -26764; -29195; 50.084516847733234; 19.990188198363274
30683; -3950; 22689; -2136; 3954; -9429; 50.084516847733234; 19.990188198363274
25343; 25347; -11640; -2752; -22050; -32240; 50.084516847733234; 19.990188198363274
-32262; -2655; 13687; -7292; -3954; -761; 50.084516847733234; 19.990188198363274
19007; 25197; 3922; 11392; 10040; 1376; 50.084516847733234; 19.990188198363274
24347; -27218; 8647; 2576; -148; 13848; 50.084516847733234; 19.990188198363274
11384; -9672; 4304; 8968; 28284; 25092; 50.084521744397094; 19.990159183296026
11002; -7919; -16980; -4100; 19304; 22344; 50.084521744397094; 19.990159183296026
-11128; 1007; 23760; -19472; -30568; -24800; 50.084521744397094; 19.990159183296026
-13420; 29308; 9710; -9872; -14142; 23572; 50.084521744397094; 19.990159183296026
24048; 17849; 23744; 8672; -5476; 23104; 50.084521744397094; 19.990159183296026
30076; -21016; 3406; -23424; -18560; 8496; 50.084521744397094; 19.990159183296026
31199; -9074; -23017; 28896; 31936; -29024; 50.084521744397094; 19.990159183296026
8328; -2521; -11034; 5248; -4544; 28448; 50.084521744397094; 19.990159183296026
7257; -10070; -2331; 4688; -23256; -28435; 50.084521744397094; 19.990159183296026
26182; -29104; -23839; 27488; 24481; 13968; 50.084521744397094; 19.990159183296026
-26541; 23503; -5694; -22944; -21584; 16736; 50.08453019633991; 19.990128501202793
19929; 15880; 32687; -2896; 20380; 25242; 50.08453019633991; 19.990128501202793
19996; 7036; -24296; -25552; -13232; -13232; 50.08453019633991; 19.990128501202793
-7167; -18599; -7671; 15520; 17335; 15664; 50.08453019633991; 19.990128501202793
-10290; -16622; -17819; -31312; 9896; 30272; 50.08453019633991; 19.990128501202793
25036; 19235; 22772; -19620; 20380; -29344; 50.08453019633991; 19.990128501202793
9624; 22606; 27580; -7907; 3192; -28435; 50.08453019633991; 19.990128501202793
13136; -30116; -8053; 23104; -14292; 8667; 50.08453019633991; 19.990128501202793
21075; -678; 26052; -16; 16112; -20080; 50.08453644026672; 19.99009649310514
-4186; -26072; -796; 27376; 11536; 12304; 50.08453644026672; 19.99009649310514
28540; -1517; 25662; 10338; 19916; 31016; 50.08453644026672; 19.99009649310514
-225; -18748; -27502; 25680; 20527; -29048; 50.08453644026672; 19.99009649310514
23350; -5785; -23391; -20527; 13992; -5008; 50.08453644026672; 19.99009649310514
28930; -29593; -9199; -5920; -27820; 8368; 50.08453644026672; 19.99009649310514
23740; 3980; 29556; 31328; 14904; -22198; 50.08453644026672; 19.99009649310514
14814; 16187; -4084; -2136; -1376; -14608; 50.08453644026672; 19.99009649310514
5272; -27451; 30553; -7907; -11712; -17188; 50.08453644026672; 19.99009649310514
-29671; -27152; 18952; -7744; 13992; 10800; 50.0845421685304; 19.990068525574003
25949; -27525; 22547; 22958; 7907; -16574; 50.0845421685304; 19.990068525574003
13734; 24417; 4386; -32388; -15052; -22198; 50.0845421685304; 19.990068525574003
-7391; -17004; -16822; 16872; -9429; -22050; 50.0845421685304; 19.990068525574003
1992; -19670; 22772; -27673; 29195; -26002; 50.0845421685304; 19.990068525574003
23433; -19138; 25595; -31184; 19620; 22958; 50.0845421685304; 19.990068525574003
-21583; 18471; -2024; 15216; 14904; -3340; 50.0845421685304; 19.990068525574003
-11967; -8002; 7891; -13968; -20527; -3954; 50.0845421685304; 19.990068525574003
10313; -8683; -5761; 29344; -4248; 3954; 50.0845421685304; 19.990068525574003
-30128; -24934; -18118; -24032; 20527; -26912; 50.0845421685304; 19.990068525574003
-21741; -25931; 11246; 4416; 761; -23256; 50.084548158194444; 19.99003668515961
26721; 32206; -9498; 18080; -15052; -29048; 50.084548158194444; 19.99003668515961
31903; -18981; 25985; -5792; -18560; -23424; 50.084548158194444; 19.99003668515961
-23493; -17004; -13467; -612; -14464; 22640; 50.084548158194444; 19.99003668515961
3902; 24807; 27497; 2136; -25242; 29195; 50.084548158194444; 19.99003668515961
31978; 14128; 25363; -28284; -11099; -1522; 50.084548158194444; 19.99003668515961
-16468; 775; -961; -14440; -14142; -23104; 50.084548158194444; 19.99003668515961
31521; 22067; -22245; -32240; -17335; 23720; 50.084548158194444; 19.99003668515961
10462; 19924; 12467; -20527; -30104; -32536; 50.084555658328966; 19.99001052933683
23890; 11230; 15904; 1968; 20380; 23572; 50.084555658328966; 19.99001052933683
-14865; -30889; 31234; 10040; 761; 26764; 50.084555658328966; 19.99001052933683
-1587; 10167; -11101; 11392; -13992; -13088; 50.084555658328966; 19.99001052933683
32659; 26028; 6288; -14440; -20080; -20080; 50.084555658328966; 19.99001052933683
22894; -14554; -5694; -26448; -19152; -12768; 50.084555658328966; 19.99001052933683
29694; 31824; 25745; -2728; -10952; -612; 50.084555658328966; 19.99001052933683
21972; 25339; -8136; 8056; -761; -24944; 50.084555658328966; 19.99001052933683
10911; 15813; -30333; -8368; 17648; -20064; 50.084555658328966; 19.99001052933683
26481; 18247; 1555; 28608; -5456; 16592; 50.08456236389278; 19.989978384421086
-12656; -10286; -6600; 25392; -27504; -21888; 50.08456236389278; 19.989978384421086
-23485; 5957; 5906; 23744; 5936; -5152; 50.08456236389278; 19.989978384421086
-15397; -3344; -13310; 24160; -20676; -20232; 50.08456236389278; 19.989978384421086
-8073; -27301; -3013; -4248; -24656; 32536; 50.08456236389278; 19.989978384421086
-24107; -29510; 16203; 9429; -12472; -31480; 50.08456236389278; 19.989978384421086
-22796; 15648; -26903; -27360; 32240; -1056; 50.08456236389278; 19.989978384421086
2382; 19168; 23079; -17040; 24776; -31328; 50.08456236389278; 19.989978384421086
29454; 9403; 29556; -31184; -30424; -30424; 50.08456236389278; 19.989978384421086
-2509; -9381; -22709; 26912; 8200; 22810; 50.08456236389278; 19.989978384421086
-674; 22216; -2946; 22810; 32536; 2432; 50.08456721389429; 19.98994748556006
25493; -20808; 12931; 5008; -11860; -14904; 50.08456721389429; 19.98994748556006
20460; -13641; 22390; -4714; 12768; 21436; 50.08456721389429; 19.98994748556006
-4186; -8542; 11403; -7584; -14608; -27524; 50.08456721389429; 19.98994748556006
-13952; 32057; -23532; 30104; -2136; 3632; 50.08456721389429; 19.98994748556006
-32644; 30612; 13164; -8520; -29808; 10632; 50.08456721389429; 19.98994748556006
20909; -16165; -15992; -3936; 13072; 24776; 50.08456721389429; 19.98994748556006
-15862; 13057; -12404; -27360; 14752; 24481; 50.08456721389429; 19.98994748556006
22587; 15656; 724; -25120; -5312; -24016; 50.08456721389429; 19.98994748556006
27395; 17259; 26741; -23424; -27360; -10784; 50.08456721389429; 19.98994748556006
-13645; 31442; 21319; -20824; -5008; -20976; 50.08457454378469; 19.989918694570648
-22953; -20359; -10337; 4568; -6996; 28284; 50.08457454378469; 19.989918694570648
28391; 16113; 25288; -3504; -30568; 29488; 50.08457454378469; 19.989918694570648
29919; -22493; 8273; 8667; -8520; -3192; 50.08457454378469; 19.989918694570648
-15704; -22800; -3103; -25536; 10338; 27673; 50.08457454378469; 19.989918694570648
-19748; -29751; -7297; 7744; -612; 24628; 50.08457454378469; 19.989918694570648
15652; 5126; 9726; -23720; -26002; -16574; 50.08457454378469; 19.989918694570648
31057; -24777; -29652; -8672; 14142; -9429; 50.08457454378469; 19.989918694570648
-28218; 5052; -26446; 19304; 28136; 30272; 50.084577234711524; 19.989885141995256
-26998; 7560; -22536; 32088; 29344; -5024; 50.084577234711524; 19.989885141995256
-30660; -21986; 1272; 18880; -19472; 15504; 50.084577234711524; 19.989885141995256
-19275; -5486; -6659; 30272; 31792; 29344; 50.084577234711524; 19.989885141995256
-28127; 20904; -32585; -160; 5344; 23232; 50.084577234711524; 19.989885141995256
17113; -18382; 28352; 29488; -576; 17536; 50.084577234711524; 19.989885141995256
12073; 29225; -3686; 18544; 8056; 23744; 50.084577234711524; 19.989885141995256
3520; 4678; 6088; -6112; 1696; -20672; 50.08458567909708; 19.989855180004888
-30037; -11499; -2615; -5504; -13696; -5920; 50.08458567909708; 19.989855180004888
-20842; -22210; 17964; -296; 8520; 32560; 50.08458567909708; 19.989855180004888
22894; -24659; 21102; 1200; -24608; 29656; 50.08458567909708; 19.989855180004888
22571; 11305; 20165; -30424; -28728; -19304; 50.08458567909708; 19.989855180004888
-24946; -22028; 21460; 8056; 27524; -9576; 50.08458567909708; 19.989855180004888
-3048; 24957; 20397; -32368; 30784; -19264; 50.08458567909708; 19.989855180004888
-26773; -22576; -16299; 26752; -31626; 32704; 50.084592487909966; 19.989843560170296
-12274; 13837; -3485; -18080; 8672; -17600; 50.084592487909966; 19.989843560170296
3288; -3635; 31982; -28272; 17800; -18858; 50.084592487909966; 19.989843560170296
25343; 32372; 2618; -1; -1; -1; 50.084592487909966; 19.989843560170296
406; 20090; -16913; 908; -3168; -5648; 50.084592487909966; 19.989843560170296
25426; -17669; -16299; 2896; -2136; -7776; 50.084592487909966; 19.989843560170296
12231; -18209; -2347; -13216; -3656; -17335; 50.084592487909966; 19.989843560170296
24205; 23071; 14294; 24184; 18858; -3632; 50.0845865719826; 19.989858124016003
-21036; 31301; -29502; 22664; 26764; 20848; 50.0845865719826; 19.989858124016003
-13711; 32754; 11013; 3192; 18712; 26464; 50.0845865719826; 19.989858124016003
27411; -27368; -25076; 22810; -3340; -16872; 50.0845865719826; 19.989858124016003
8793; 16503; 1323; 26296; 26764; 18858; 50.0845865719826; 19.989858124016003
-16078; 26725; -11723; -23572; 18858; -908; 50.0845865719826; 19.989858124016003
-11195; 16503; 29781; 8056; -12621; -12621; 50.0845865719826; 19.989858124016003
21000; -30341; -20650; 18244; 10338; 2432; 50.0845865719826; 19.989858124016003
14058; -2647; -3560; 23720; -18096; -29956; 50.0845865719826; 19.989858124016003
10852; -29120; -12869; 14142; -4714; 7907; 50.0845865719826; 19.989858124016003
23823; 31990; -17445; 28435; 32388; -13382; 50.0845865719826; 19.989858124016003
-18063; -10735; -19047; -908; -7907; 31626; 50.0845865719826; 19.989858124016003
-591; -14015; -30034; -32388; 19767; 14292; 50.0845865719826; 19.989858124016003
31986; -17677; -30416; 761; -4714; -9429; 50.0845865719826; 19.989858124016003
19779; -20118; -15385; -4714; -25242; 15813; 50.0845865719826; 19.989858124016003
-20961; 10017; 26119; -13382; -17335; -761; 50.0845865719826; 19.989858124016003
-17299; -17677; -19047; 761; -12621; 3954; 50.0845865719826; 19.989858124016003
