ax; ay; az; gx; gy; gz; lat; lon
-4726; 23875; 4579; -2284; 15813; 3954; 50.08359157427634; 19.992919938440714
-24257; 682; -12129; -14142; -8667; 7907; 50.08359157427634; 19.992919938440714
-14873; -10761; 2519; -22050; 3954; 32388; 50.08359157427634; 19.992919938440714
16865; -21366; -21513; -17335; 11860; 29504; 50.08359157427634; 19.992919938440714
31364; 23717; 13198; 1968; 21289; -10338; 50.08359157427634; 19.992919938440714
16408; 2673; 692; 29956; -29344; 27673; 50.08359157427634; 19.992919938440714
-20602; -25926; -13740; 16832; -1816; 30544; 50.08359157427634; 19.992919938440714
-17547; 6269; -15102; 16872; -32688; -9576; 50.08359157427634; 19.992919938440714
27702; -25253; -21048; -1952; 3804; 30128; 50.08359157427634; 19.992919938440714
-1512; -23651; -14189; -3024; 1072; 19916; 50.08359157427634; 19.992919938440714
3686; -13053; -22045; 13248; 16280; 3504; 50.08359157427634; 19.992919938440714
-14790; 25096; 31276; -30592; -296; -12192; 50.08359157427634; 19.992919938440714
-13719; -21666; 10698; -3044; -22958; -21920; 50.08359157427634; 19.992919938440714
-14932; 30793; 1598; -22080; 5176; 25248; 50.08359157427634; 19.992919938440714
13758; -19181; -8542; 1408; 12768; 22032; 50.08360203378702; 19.992926204597747
20834; -3048; 6414; 23720; -11560; -2752; 50.08360203378702; 19.992926204597747
-9152; -25891; 4122; 26464; 21289; 14016; 50.08360203378702; 19.992926204597747
10163; -9549; -26388; -17040; 17484; -16112; 50.08360203378702; 19.992926204597747
-14342; 15164; -16473; 14720; 5920; 8976; 50.08360203378702; 19.992926204597747
-18535; 17853; 12584; 15392; -12328; 30256; 50.08360203378702; 19.992926204597747
-5174; -26024; 11529; 8368; 761; -1200; 50.08360203378702; 19.992926204597747
-9616; -31888; 18613; -20380; -4100; -11584; 50.08360203378702; 19.992926204597747
-6478; 16933; 25870; 10976; -19620; 20064; 50.08360203378702; 19.992926204597747
14955; 12507; -2596; 13728; 9429; -23424; 50.08360203378702; 19.992926204597747
29754; 25568; 7942; -5664; 1670; 7146; 50.08360203378702; 19.992926204597747
-32187; 21216; 28752; -14784; -14584; 10632; 50.08360203378702; 19.992926204597747
-11793; 14168; -15401; 25056; -31136; -1088; 50.08360203378702; 19.992926204597747
7722; -18468; -22103; 9872; 25392; 3488; 50.08360203378702; 19.992926204597747
-10049; 24496; 24807; -9856; -17188; 15232; 50.08360203378702; 19.992926204597747
-27604; -23367; 4504; -23888; 2688; -20512; 50.08360203378702; 19.992926204597747
-21102; -6179; 18770; 8656; 31626; 28032; 50.08360203378702; 19.992926204597747
17247; -17165; 28320; 24032; -14752; 5456; 50.08360203378702; 19.992926204597747
-4635; 2119; 15274; -18048; 2256; 4128; 50.08360203378702; 19.992926204597747
-7923; -13625; -18524; 4248; -2432; -464; 50.083626730663255; 19.992943719096424
1004; 24674; -7612; 25242; 7584; 8656; 50.083626730663255; 19.992943719096424
-9293; -1642; -3958; -7008; -18392; -29824; 50.083626730663255; 19.992943719096424
4674; 4910; 29765; 18096; -16864; 30016; 50.083626730663255; 19.992943719096424
24579; -6899; 13281; 27232; -20080; -14176; 50.083626730663255; 19.992943719096424
31297; -25808; -24037; -18816; 15984; 19936; 50.083642155491994; 19.992948626069943
-11120; 10207; 4886; 25840; 15813; 10784; 50.083642155491994; 19.992948626069943
-2583; -22004; -26695; 5008; 27376; -16256; 50.083642155491994; 19.992948626069943
-6395; 31498; 26866; -2752; -21904; 25072; 50.083642155491994; 19.992948626069943
-5407; -21141; 22432; -14016; -24032; -32224; 50.083642155491994; 19.992948626069943
22827; 11136; -16547; 31792; -13232; 31968; 50.083642155491994; 19.992948626069943
-21957; -28017; 30670; -13680; -17040; 31200; 50.083642155491994; 19.992948626069943
29620; 2733; -30290; 4400; 30104; 23868; 50.083642155491994; 19.992948626069943
-12881; 28285; 551; 14976; -24656; -13504; 50.08366136835723; 19.992943251310347
28092; 19574; 7634; -6832; 22198; 30400; 50.08366136835723; 19.992943251310347
18850; 26682; 27091; -1522; -30718; -15840; 50.08366136835723; 19.992943251310347
8245; 31183; 22582; -6224; -3804; 7608; 50.08366136835723; 19.992943251310347
-14790; 5623; 11895; -16256; 7146; 25242; 50.08366136835723; 19.992943251310347
-1512; -19256; 21145; 29248; 12768; 7920; 50.08366136835723; 19.992943251310347
-27986; -15909; 5359; -17944; -14142; -25552; 50.08366136835723; 19.992943251310347
-10746; -12546; 17036; -7907; -30718; 9088; 50.08366136835723; 19.992943251310347
-6021; 9277; -23647; -31328; 16424; -8672; 50.08366136835723; 19.992943251310347
-2284; 25454; 27016; -18560; 29195; -13232; 50.08366136835723; 19.992943251310347
-11278; 20803; -26919; 4714; 25092; -13968; 50.08366136835723; 19.992943251310347
-11510; 5839; 25015; -11872; -15352; -20676; 50.08366136835723; 19.992943251310347
17562; 18669; -30357; 22032; -27673; 6236; 50.08366136835723; 19.992943251310347
1461; -13377; 1558; 6236; -20676; 12784; 50.08366136835723; 19.992943251310347
30301; 17673; 4886; 25092; -31920; 24496; 50.08366136835723; 19.992943251310347
-8238; -10486; -21254; 17088; -31296; 9664; 50.08368860982966; 19.992950500245147
4359; -5513; -5919; -16192; -29808; -18244; 50.08368860982966; 19.992950500245147
-19791; -31303; 24118; 32240; 15352; -10952; 50.08368860982966; 19.992950500245147
-23111; -7746; -8136; 23408; 22032; 18368; 50.08368860982966; 19.992950500245147
13578; 7301; -29262; -25888; -31936; -29664; 50.08368860982966; 19.992950500245147
-20587; -16673; -30515; -29195; -7292; -29488; 50.08368860982966; 19.992950500245147
-22339; 32679; 13356; 4416; -29956; -23904; 50.083702841570535; 19.992958568808962
8627; 16452; 31143; -22050; 11099; 28728; 50.083702841570535; 19.992958568808962
-26923; 6155; -20201; -19152; 17188; 29956; 50.083702841570535; 19.992958568808962
28930; 9411; -30207; -31328; 30866; -4568; 50.083702841570535; 19.992958568808962
-27072; -32227; -812; 28864; 28136; 22050; 50.083702841570535; 19.992958568808962
-3655; 17275; 10765; 19520; 15664; 8520; 50.083702841570535; 19.992958568808962
2756; -7238; -6466; 29792; -9576; 3216; 50.083702841570535; 19.992958568808962
-21201; -23997; -16622; 12621; -22958; 32560; 50.083713405304685; 19.992969045865163
-17531; 21460; -6325; 28136; -21289; 23572; 50.083713405304685; 19.992969045865163
547; 14609; -10203; 19304; -28136; 27064; 50.083713405304685; 19.992969045865163
2681; 9419; 27946; 3616; 31160; -17800; 50.083713405304685; 19.992969045865163
4434; 22157; -29361; 20380; -29808; 12736; 50.083713405304685; 19.992969045865163
12065; 8895; 20605; -20527; -31480; 17632; 50.083713405304685; 19.992969045865163
-6246; 30860; 25571; -26320; -13382; 25392; 50.083713405304685; 19.992969045865163
-6246; -26356; -30963; -1376; 31776; 15648; 50.083713405304685; 19.992969045865163
20760; -16665; -27534; 17312; 28584; -8080; 50.083713405304685; 19.992969045865163
-30278; 29797; 4205; -25536; 3044; -20527; 50.083730762939496; 19.99297793918056
-599; -6434; -25167; 21140; 612; -11536; 50.083730762939496; 19.99297793918056
23433; -6359; 3366; -25248; -26912; -22032; 50.083730762939496; 19.99297793918056
7415; -10104; 18164; -6088; -1522; 4736; 50.083730762939496; 19.99297793918056
8561; 29191; 2602; 4714; -13382; 3954; 50.083730762939496; 19.99297793918056
-5864; 29647; 7875; -29808; 30104; 27968; 50.083730762939496; 19.99297793918056
-10979; 7824; 24267; 4568; 21436; -26616; 50.083730762939496; 19.99297793918056
-11660; 4394; 15955; 3504; -6236; -17040; 50.083730762939496; 19.99297793918056
-10290; 12325; -15783; 23408; -6236; -10656; 50.083730762939496; 19.99297793918056
-8006; 13620; 29839; 27360; -20527; -10512; 50.083730762939496; 19.99297793918056
7489; -9341; -8692; 22664; -4100; -18080; 50.08374298392067; 19.992990164485587
24886; -19945; -64; 16288; -6384; 19328; 50.08374298392067; 19.992990164485587
12297; 19342; -27534; -26002; -26152; 6848; 50.08374298392067; 19.992990164485587
-30660; 21094; 16802; -5176; -21289; -9280; 50.08374298392067; 19.992990164485587
-5332; -8352; -7081; -19168; 9576; 20824; 50.08374298392067; 19.992990164485587
-22804; -13534; 27705; -19472; 26002; 29344; 50.08374298392067; 19.992990164485587
8785; -31695; 5193; -13532; -23104; 12176; 50.08374298392067; 19.992990164485587
-17531; -24828; 23578; -1200; 32240; 6704; 50.083754667108664; 19.99300258678034
22595; 20181; -4872; 5328; -2432; -12768; 50.083754667108664; 19.99300258678034
-17689; 8812; -2281; 18096; -10952; -31626; 50.083754667108664; 19.99300258678034
-26923; -10030; 10151; 3656; -14142; -29344; 50.083754667108664; 19.99300258678034
19314; -12778; -28372; -6536; -28284; -21289; 50.083754667108664; 19.99300258678034
-17689; -12164; 24425; -28435; 18244; 12920; 50.083754667108664; 19.99300258678034
23890; 2634; -13566; -29216; -22050; 1816; 50.083754667108664; 19.99300258678034
16790; 2792; -25998; 19916; 4100; 18080; 50.083754667108664; 19.99300258678034
-7084; -18035; 8323; -26152; 3954; 14292; 50.08376859488006; 19.993015809514414
28084; 5001; 1381; 28752; -3192; 27673; 50.08376859488006; 19.993015809514414
15038; 25761; -22792; 23104; 16574; 1670; 50.08376859488006; 19.993015809514414
5580; -2946; 28926; -29048; -10338; 1376; 50.08376859488006; 19.993015809514414
-29289; 11254; -2198; 7440; 25242; 5768; 50.08376859488006; 19.993015809514414
28466; 358; 25720; 16424; -761; 14736; 50.08376859488006; 19.993015809514414
32510; -18724; 20074; 32224; -30866; 3044; 50.08376859488006; 19.993015809514414
12671; 3481; 9395; -28272; -31016; -31776; 50.08376859488006; 19.993015809514414
32360; -16208; -29294; -31776; 19472; -12736; 50.08376859488006; 19.993015809514414
-981; 32305; 23047; -2880; 28896; -1360; 50.083782867291895; 19.993026502685833
-26541; -3237; -32400; 29792; -27673; -28880; 50.083782867291895; 19.993026502685833
4508; 24682; -4108; -25092; -7292; -17936; 50.083782867291895; 19.993026502685833
2225; -17736; -29900; 29024; -2576; 22224; 50.083782867291895; 19.993026502685833
-11046; 1795; -12503; -18416; -20380; -7146; 50.083782867291895; 19.993026502685833
-5332; -27419; 5524; -24481; -20232; -21600; 50.083782867291895; 19.993026502685833
-23335; 13388; -2222; 30424; -6236; 22810; 50.083782867291895; 19.993026502685833
-14259; 9128; 30246; 1056; -6704; -30752; 50.083782867291895; 19.993026502685833
-18909; -17744; 13663; -27504; -13848; 19152; 50.083782867291895; 19.993026502685833
24886; -1701; 8997; 736; 3954; 16574; 50.0837987486135; 19.99303959847511
17255; -2930; -14712; -9136; -27673; 8968; 50.0837987486135; 19.99303959847511
16865; 6080; -31180; 23680; 27673; -15232; 50.0837987486135; 19.99303959847511
30450; -12621; -32259; 29984; -25092; -7760; 50.0837987486135; 19.99303959847511
-4411; 26749; 4579; 27104; 18858; -21728; 50.0837987486135; 19.99303959847511
-26848; -16972; -1891; 10040; 7907; 12448; 50.0837987486135; 19.99303959847511
-17157; -2540; -19205; -6236; -29956; -11712; 50.0837987486135; 19.99303959847511
3281; -10112; -18449; -24332; 19767; -28136; 50.083815324005975; 19.993059465255797
-23643; -2631; 13364; -32704; -9576; 32088; 50.083815324005975; 19.993059465255797
-24556; 19890; 14975; 3168; -17776; -23868; 50.083815324005975; 19.993059465255797
-25013; -22004; 3964; -16096; 21752; 28284; 50.083815324005975; 19.993059465255797
-25470; -7190; 17558; 18392; 28752; -28576; 50.083815324005975; 19.993059465255797
32277; -26305; -13350; -13552; 21752; -14584; 50.083815324005975; 19.993059465255797
8478; 5831; -32342; -20032; 32240; 8368; 50.083815324005975; 19.993059465255797
-27379; 8513; 29682; 12160; -30104; 6560; 50.083815324005975; 19.993059465255797
2839; -32601; 14959; -10016; -12768; 23584; 50.083815324005975; 19.993059465255797
-13960; 8065; -16929; 11968; 8056; 6528; 50.0838297246756; 19.993068009208788
31065; -31380; 1031; 27328; -29048; -20384; 50.0838297246756; 19.993068009208788
8486; 8198; -6183; -4224; -16424; 15052; 50.0838297246756; 19.993068009208788
13742; 15373; -14928; -12096; -13088; 7292; 50.0838297246756; 19.993068009208788
6950; 15995; -28704; 12864; -3632; -9568; 50.0838297246756; 19.993068009208788
15262; 2800; 15199; 13968; 6848; 14752; 50.08384728818674; 19.993084069571836
-3962; 17291; -17370; -27872; 13382; 15984; 50.08384728818674; 19.993084069571836
25958; 20512; 6571; -3792; -3192; -22816; 50.08384728818674; 19.993084069571836
-24465; 658; -4581; -27360; -8816; 32416; 50.08384728818674; 19.993084069571836
-2127; 9726; -16705; -13968; 16724; -5024; 50.08384728818674; 19.993084069571836
11301; 11420; -28289; 1376; 26152; 23868; 50.08384728818674; 19.993084069571836
-14326; 5690; -20890; -15813; -30104; -18392; 50.08384728818674; 19.993084069571836
20236; -197; 16877; -32688; 16424; 32388; 50.08384728818674; 19.993084069571836
-7691; -16748; -24478; 10656; -23868; 3804; 50.08386410734605; 19.993098214582822
29470; 22165; 19858; -7440; -31480; 12621; 50.08386410734605; 19.993098214582822
-11884; -27053; 17566; -31616; -28435; 22958; 50.08386410734605; 19.993098214582822
15735; 7426; -30880; -8352; 31456; 31016; 50.08386410734605; 19.993098214582822
5206; -23391; 9328; 21436; -13408; 12768; 50.08386410734605; 19.993098214582822
1835; -17047; -16416; 30080; -30256; -27524; 50.08386410734605; 19.993098214582822
-26367; 22347; -26273; -29248; 14624; 11136; 50.08388171256931; 19.99310956816292
-12640; 32473; 7768; -31296; 20960; 8032; 50.08388171256931; 19.99310956816292
-30899; 9186; -10393; -28992; 21376; 23168; 50.08388171256931; 19.99310956816292
4965; -4134; -12220; -24160; -5792; 12096; 50.08388171256931; 19.99310956816292
24953; -22162; 18279; 26432; 32560; 22464; 50.08388171256931; 19.99310956816292
-10565; -25958; -1501; 24776; -18112; -16736; 50.08388171256931; 19.99310956816292
18350; 26076; -5711; 13072; -23424; 4568; 50.08388171256931; 19.99310956816292
-15180; 28592; -20492; -5760; -15392; 7920; 50.08388171256931; 19.99310956816292
-11187; 29025; 24110; -2284; -29195; -27376; 50.08388171256931; 19.99310956816292
5115; 9186; 7044; 32560; -4128; 18272; 50.08389881537267; 19.993108178287443
-29522; -16921; -5844; 17312; -18560; -2896; 50.08389881537267; 19.993108178287443
-24257; -29072; -32109; -12448; 3044; 10656; 50.08389881537267; 19.993108178287443
-13022; -26123; -16091; -8496; -592; -20416; 50.08389881537267; 19.993108178287443
-27505; -8419; 17491; -16574; 27552; 1600; 50.08389881537267; 19.993108178287443
26257; 29057; -15933; -10488; -23888; 19006; 50.08389881537267; 19.993108178287443
-16743; -26414; 26725; 21904; 1816; 3216; 50.08389881537267; 19.993108178287443
20543; 3158; -19138; -1056; -22400; -32536; 50.08389881537267; 19.993108178287443
16708; 17980; 29142; 26272; -19472; -27552; 50.08389881537267; 19.993108178287443
20378; 7616; -10444; 28544; 7907; -21140; 50.08389881537267; 19.993108178287443
-14491; 14566; 10981; -22032; 8667; 15352; 50.08389881537267; 19.993108178287443
7415; 29215; -26238; 26272; -24464; -20064; 50.083904736709876; 19.9930418608204
-17456; 21583; -8227; -18832; 17335; 25704; 50.083904736709876; 19.9930418608204
-10065; 2119; -6026; -24768; -19620; 2448; 50.083904736709876; 19.9930418608204
18559; 7060; 21759; -15168; 8520; -30848; 50.083904736709876; 19.9930418608204
-24623; -30100; -19753; -2752; -30718; -16256; 50.083904736709876; 19.9930418608204
-16751; 30155; -21954; 29504; 30240; -7616; 50.083904736709876; 19.9930418608204
-3804; -9805; -13791; -5312; 296; 32064; 50.083904736709876; 19.9930418608204
-5482; 28635; -18209; -4736; 22810; -1696; 50.08390885851764; 19.99300878330735
26572; 21949; -28148; -17335; 14176; -9856; 50.08390885851764; 19.99300878330735
30234; 18720; 27174; -15392; -7146; -5456; 50.08390885851764; 19.99300878330735
19614; -2158; -16248; 6016; 12008; -18244; 50.08390885851764; 19.99300878330735
4674; -9947; 18014; -22810; 1200; 27984; 50.08390885851764; 19.99300878330735
5588; -20701; 6264; -13232; -1224; -11584; 50.08390885851764; 19.99300878330735
30376; 13255; -8924; -13382; -9429; 13792; 50.08390885851764; 19.99300878330735
26871; -30010; -2746; 2752; -1670; 5024; 50.08391020956286; 19.992968123127508
5497; 15546; -27242; 13360; 12621; 10512; 50.08391020956286; 19.992968123127508
-3879; 18976; -18225; 3192; 5476; 5024; 50.08391020956286; 19.992968123127508
-25013; 6611; -14031; -28112; -24481; 5008; 50.08391020956286; 19.992968123127508
-989; -1319; 29831; 13680; -22198; -21600; 50.08391020956286; 19.992968123127508
-9376; -21000; 25405; -27504; -12768; 9744; 50.08391020956286; 19.992968123127508
9856; -25052; 11537; 8200; -26002; -6536; 50.08391020956286; 19.992968123127508
-7391; 20712; 26709; -7440; -29048; -19006; 50.08391020956286; 19.992968123127508
16026; -15818; -15185; -11560; 11860; 29344; 50.08391020956286; 19.992968123127508
-32719; -8029; 14045; -14784; -28584; 18392; 50.08391887884249; 19.992926261328
19771; 17307; -16929; 15168; 24496; -30568; 50.08391887884249; 19.992926261328
-1587; -9175; 14427; 6016; -28284; 17344; 50.08391887884249; 19.992926261328
25335; -21099; 23661; 3340; 22664; 22512; 50.08391887884249; 19.992926261328
-23410; 19791; 10084; -10784; 3192; -11860; 50.08391887884249; 19.992926261328
-28218; 24067; 17400; 18112; -30104; 7312; 50.08391887884249; 19.992926261328
23441; 18728; 22665; 14736; -4272; 16560; 50.08391887884249; 19.992926261328
27695; -25749; -15460; -26496; 3340; 24928; 50.08391887884249; 19.992926261328
30450; -27891; -4648; -19916; -27208; 26928; 50.083927579773054; 19.99288293477411
9698; -4541; 25189; -13680; 23720; 22224; 50.083927579773054; 19.99288293477411
26946; 22539; -20068; 320; 26152; 8520; 50.083927579773054; 19.99288293477411
-22796; -7821; 31915; -32672; 8496; -8816; 50.083927579773054; 19.99288293477411
1453; -17795; 28154; -24928; -27524; 31616; 50.083927579773054; 19.99288293477411
13967; -19937; -2962; 13216; -5624; -12160; 50.083927579773054; 19.99288293477411
-18602; 16909; -17536; 30848; 22198; -8368; 50.083927579773054; 19.99288293477411
-21741; -12530; -21198; 20527; -22958; -2576; 50.083927579773054; 19.99288293477411
27395; -30699; -10826; 2400; 761; -7584; 50.08393243473748; 19.992845169387603
-9982; -26796; 3590; 18528; 30866; -20208; 50.08393243473748; 19.992845169387603
-30510; 27970; -8085; 9536; 7146; -10880; 50.08393243473748; 19.992845169387603
11841; 19866; 22058; -17335; 24016; -15392; 50.08393243473748; 19.992845169387603
-21816; 9053; -18922; 16736; -6088; 22944; 50.08393243473748; 19.992845169387603
-31432; 25678; -21115; 1670; 11248; -20848; 50.08393243473748; 19.992845169387603
21059; -8726; -19753; 17648; -8816; 23104; 50.08393243473748; 19.992845169387603
-21126; 6221; 26169; 21728; 31480; 26616; 50.08393243473748; 19.992845169387603
29230; 11029; 20530; -20380; 5328; 4272; 50.08393243473748; 19.992845169387603
26863; 30943; -26762; 23572; -22958; -20824; 50.08393743806607; 19.992810773700526
-1520; 5225; -26994; -22958; 3044; -26752; 50.08393743806607; 19.992810773700526
13435; -7140; 6788; 896; -16112; -13968; 50.08393743806607; 19.992810773700526
28623; 12109; 11994; 14464; 16724; 23888; 50.08393743806607; 19.992810773700526
-3721; 8663; 25953; 9024; 10632; 30272; 50.08393743806607; 19.992810773700526
21059; 31474; 29150; 21752; -30568; 10928; 50.08393743806607; 19.992810773700526
14314; -27008; 23526; -25408; 26152; 32368; 50.08393743806607; 19.992810773700526
25568; 25902; -1824; 28728; 2136; 28608; 50.083943681193304; 19.992791993550046
22213; -29711; -27616; 9576; -10338; -3044; 50.083943681193304; 19.992791993550046
20078; -8037; 22665; -6996; 26152; 19006; 50.083943681193304; 19.992791993550046
-21515; -31230; 14884; 11536; 21436; 13360; 50.083943681193304; 19.992791993550046
25410; 9443; -26388; -23712; 15052; -12448; 50.083943681193304; 19.992791993550046
24961; -32534; -29743; 14292; -3044; -2576; 50.083943681193304; 19.992791993550046
5497; 25827; 4055; 736; 23868; -14464; 50.08395247710889; 19.992761108769923
-10447; 5084; -1442; 2136; -17335; -15216; 50.08395247710889; 19.992761108769923
-27462; -26954; -23722; 8056; -6384; 23572; 50.08395247710889; 19.992761108769923
23433; -25292; 2444; 6704; 11099; 8968; 50.08395247710889; 19.992761108769923
24646; -18185; -836; 27360; 8667; -928; 50.08395247710889; 19.992761108769923
7556; -3536; -9696; 18416; 10190; 31184; 50.08395247710889; 19.992761108769923
23740; -22603; -25084; -13680; 24332; 17648; 50.08396375281456; 19.992728883999177
-5938; -11558; 26252; -30568; -31776; 6088; 50.08396375281456; 19.992728883999177
-26848; -30474; -18831; 9872; -8667; -19472; 50.08396375281456; 19.992728883999177
-5564; -19256; -3194; 21752; -21289; 26152; 50.08396375281456; 19.992728883999177
13203; 1870; -17760; -908; -17484; 32088; 50.08396375281456; 19.992728883999177
921; -24911; -1285; -24776; -5476; 1376; 50.08396375281456; 19.992728883999177
-7848; 31781; 2236; 7456; 17335; -2728; 50.08396375281456; 19.992728883999177
-13645; 30171; 17699; -31626; -5768; -11840; 50.08396375281456; 19.992728883999177
20602; 25005; 18546; -9600; -21140; 7440; 50.083962280063616; 19.992694540209015
28009; 12939; 6488; -18096; 4714; -10338; 50.083962280063616; 19.992694540209015
29462; -21622; 15041; -31184; 21289; -21584; 50.083962280063616; 19.992694540209015
2906; -24902; 6721; 13232; -19006; 3216; 50.083962280063616; 19.992694540209015
-9675; -6368; -5403; 26928; -27376; -28136; 50.083962280063616; 19.992694540209015
19771; -32077; -6541; -9872; 29488; -928; 50.083962280063616; 19.992694540209015
3512; -15286; 7867; 592; 31776; 25504; 50.083962280063616; 19.992694540209015
-9152; 16983; -6333; -29312; -11712; 6680; 50.08397003739933; 19.992660594222947
-17082; 16751; 5434; 14128; -2432; 15813; 50.08397003739933; 19.992660594222947
-12050; -12463; 28013; 12472; -11099; 7292; 50.08397003739933; 19.992660594222947
30143; -25351; 2901; -17776; 25092; 31792; 50.08397003739933; 19.992660594222947
22437; 27438; 21676; -20232; 2136; 28320; 50.08397003739933; 19.992660594222947
-4568; -20476; -8002; 18392; 28284; -21120; 50.08397003739933; 19.992660594222947
-13412; -20551; 13813; 2752; 20527; 14142; 50.08397003739933; 19.992660594222947
20228; 16668; -24486; -9896; 9576; -1224; 50.08397003739933; 19.992660594222947
17015; -30699; -25391; 31626; -20380; -12640; 50.08397003739933; 19.992660594222947
2449; -24520; 27548; 29956; -19620; 5152; 50.08397003739933; 19.992660594222947
-10372; -10943; 1996; -8496; -3656; -12944; 50.08397744265749; 19.992632514386315
3737; -28116; 30902; 11120; -9429; -14752; 50.08397744265749; 19.992632514386315
-756; -22312; -1741; 19006; -30256; 25408; 50.08397744265749; 19.992632514386315
-27687; 20555; -64; 31160; 31328; 17344; 50.08397744265749; 19.992632514386315
29994; -2182; 23039; 4272; 26002; -3656; 50.08397744265749; 19.992632514386315
-29296; -31313; 24027; -10040; 3192; -27072; 50.08397744265749; 19.992632514386315
-19756; 15306; 24267; 9872; 21289; 10952; 50.08397744265749; 19.992632514386315
10088; -24304; -19304; -18544; -29344; -31904; 50.08398261817396; 19.992602076336528
24272; 27339; -26845; -8496; -13992; -7608; 50.08398261817396; 19.992602076336528
-1446; 12026; 28477; -15680; -30568; 10624; 50.08398261817396; 19.992602076336528
-27388; 6911; -2970; 26176; -19620; -12328; 50.08398261817396; 19.992602076336528
-13578; 13238; 6579; 5328; 10338; -30752; 50.08398261817396; 19.992602076336528
-7092; -20701; -7554; 7776; -16724; -25536; 50.08398261817396; 19.992602076336528
23583; 5300; -14397; 24160; -908; -26752; 50.08398261817396; 19.992602076336528
-30585; -29187; 842; 8520; 2136; 2752; 50.08398767226299; 19.99257302707914
12223; -6301; -3502; 612; -11860; -17632; 50.08398767226299; 19.99257302707914
-9459; 26981; -31495; -25392; 21436; -9744; 50.08398767226299; 19.99257302707914
-17846; -16066; 12899; 31360; 7907; 18712; 50.08398767226299; 19.99257302707914
-12424; -6675; -16099; -24160; 26616; -32536; 50.08398767226299; 19.99257302707914
-11054; -9183; 30379; 13504; 1522; 22198; 50.08398767226299; 19.99257302707914
-6478; -22851; -30739; 10816; 14292; 908; 50.08398767226299; 19.99257302707914
-26009; 24914; -13641; 11232; 10952; 31040; 50.083995451441496; 19.99253883575904
14314; -27008; 23526; 9744; 21904; -32224; 50.083995451441496; 19.99253883575904
30458; -25674; 16412; -4568; 12621; 17335; 50.083995451441496; 19.99253883575904
15877; 6745; -13342; 17760; 8667; 16724; 50.083995451441496; 19.99253883575904
-11593; -6127; -17154; -1670; 8667; -23424; 50.083995451441496; 19.99253883575904
23732; 25827; 9005; 18272; -3954; 7456; 50.083995451441496; 19.99253883575904
-22189; 19342; 24350; -22640; -1670; 16280; 50.083995451441496; 19.99253883575904
-11892; 1256; 30902; 13532; 21289; 3340; 50.083995451441496; 19.99253883575904
10761; 583; -18300; -2016; 3954; -21752; 50.08400440930912; 19.992510144384724
23126; 20945; 5492; -296; 10952; 4128; 50.08400440930912; 19.992510144384724
-12806; 29946; 13596; 12920; -2432; -16872; 50.08400440930912; 19.992510144384724
-23493; 4087; 3133; 20688; 15052; 17484; 50.08400440930912; 19.992510144384724
23508; 28966; -13956; -21140; 23720; -15813; 50.08400440930912; 19.992510144384724
-21741; -30167; -30424; -21600; -14142; 24016; 50.08400440930912; 19.992510144384724
4276; 10656; 13895; -21728; -27673; -10338; 50.08400440930912; 19.992510144384724
622; 12557; -12960; 2896; -26152; -16872; 50.08400440930912; 19.992510144384724
9167; 20023; 10159; -19620; -15813; 14904; 50.08400915493875; 19.992480135365827
-10447; 20031; -29826; -31776; 1670; 11248; 50.08400915493875; 19.992480135365827
26938; 2111; -8683; 25680; -27524; 31016; 50.08400915493875; 19.992480135365827
7257; 29423; 14277; -13696; -23720; 20380; 50.08400915493875; 19.992480135365827
24579; -7513; 32281; 23868; -908; -29024; 50.08400915493875; 19.992480135365827
-31880; -24828; -16232; 31328; -19620; -2284; 50.08400915493875; 19.992480135365827
-8081; -27726; -9231; 29504; -15664; -320; 50.08400915493875; 19.992480135365827
29296; -3461; 15432; -26928; -10952; 5456; 50.08400915493875; 19.992480135365827
7257; 3024; 2843; -29056; -16280; -6560; 50.08400915493875; 19.992480135365827
24571; -20476; -8235; 22816; -26764; 30400; 50.08401416935388; 19.99244969905748
-4875; -11010; 4661; -5824; 14142; 5476; 50.08401416935388; 19.99244969905748
29836; -3237; -27841; -31776; -761; 19328; 50.08401416935388; 19.99244969905748
2681; 4386; -3194; -14608; 14142; -28272; 50.08401416935388; 19.99244969905748
15802; -14755; 18695; -4544; 4568; -12448; 50.08401416935388; 19.99244969905748
-2965; 26292; -18532; 10784; -6236; -26448; 50.08401416935388; 19.99244969905748
30293; 25985; -32491; -30592; -13382; 26152; 50.08401416935388; 19.99244969905748
-22123; -9191; -25009; -19520; -32536; 25704; 50.0840211468511; 19.992419578928576
12289; 1886; -5246; -10352; 6996; -8368; 50.0840211468511; 19.992419578928576
-11353; -25052; -21355; 7312; -761; -27376; 50.0840211468511; 19.992419578928576
1228; -29171; -29219; 26152; -28284; 10928; 50.0840211468511; 19.992419578928576
24646; -5131; 11687; 22344; -6236; 24464; 50.0840211468511; 19.992419578928576
-9609; -26647; 26086; -6064; 10338; 7907; 50.0840211468511; 19.992419578928576
-23261; -12995; 31592; -12621; 761; -10488; 50.0840211468511; 19.992419578928576
-25395; 11719; 20814; -32064; -15813; 21888; 50.0840211468511; 19.992419578928576
-4186; -25343; 4055; -10512; -32240; -14608; 50.08402710897123; 19.992389385923573
16184; -1477; 9461; 31360; -26152; 21140; 50.08402710897123; 19.992389385923573
-1213; 32471; 27473; 27820; 8667; 5328; 50.08402710897123; 19.992389385923573
14888; -28864; -4431; 17088; -31626; 31480; 50.08402710897123; 19.992389385923573
28540; 5182; 15714; -25888; 27524; -10176; 50.08402710897123; 19.992389385923573
-23493; -12006; -7164; -21312; -15200; -23072; 50.08402710897123; 19.992389385923573
-1446; -11242; 7252; -26448; 22810; 5952; 50.08402710897123; 19.992389385923573
6186; 22622; 8323; -18880; -13992; -15984; 50.08402710897123; 19.992389385923573
-26316; -24056; -29975; 29936; 27064; -31040; 50.0840336717978; 19.992359423140957
-28683; 25387; 16404; 15520; 19152; 23720; 50.0840336717978; 19.992359423140957
16491; 13329; 11612; -32536; 16724; -21289; 50.0840336717978; 19.992359423140957
5115; 11577; -6408; 25552; -15052; -14142; 50.0840336717978; 19.992359423140957
23350; -15361; -14039; -288; 24628; 22958; 50.0840336717978; 19.992359423140957
26398; 15771; 6189; -19916; -3954; -31792; 50.0840336717978; 19.992359423140957
-29289; 13562; 27689; 3044; 8667; 27064; 50.0840336717978; 19.992359423140957
3288; -21457; 22432; 4568; 7907; 9872; 50.0840336717978; 19.992359423140957
3130; 31341; -16315; -3192; -6384; -21600; 50.08404119689333; 19.992332937914092
-28376; 23469; 9229; 21140; 4568; -6680; 50.08404119689333; 19.992332937914092
-1595; -9183; 4047; 17648; -148; -31016; 50.08404119689333; 19.992332937914092
24804; 11577; -31503; 1522; -30866; -2284; 50.08404119689333; 19.992332937914092
19614; -4906; 15423; -19168; -3192; 10488; 50.08404119689333; 19.992332937914092
17704; 7907; -6258; 14292; -20527; 8200; 50.08404119689333; 19.992332937914092
-11286; 12109; 27780; 8056; -20527; -9429; 50.08404119689333; 19.992332937914092
5729; -24056; 19534; 5176; -13532; -3632; 50.08404119689333; 19.992332937914092
-20894; 31408; -20907; 5792; 29048; 28320; 50.08404119689333; 19.992332937914092
-32644; 16302; -18532; 5152; 24481; -23868; 50.084049536160705; 19.992302238756704
-15862; -25509; -24254; -11712; 1670; 7907; 50.084049536160705; 19.992302238756704
-10904; 30187; -7246; 13088; 26152; 6536; 50.084049536160705; 19.992302238756704
-9301; -15278; -27384; -31328; 12768; -12472; 50.084049536160705; 19.992302238756704
-8537; 2800; 14352; 23256; 9576; 3954; 50.084049536160705; 19.992302238756704
15038; -25127; 4961; -24332; -29956; 25392; 50.084049536160705; 19.992302238756704
20834; -4524; 4205; 29048; -23572; -11408; 50.084049536160705; 19.992302238756704
-8994; -32219; 22133; -13696; -1522; 1664; 50.084049536160705; 19.992302238756704
-23418; -22146; -31810; -3504; 25392; 30704; 50.0840555496052; 19.99226935311052
19074; -12148; 13887; -32536; 2284; 19006; 50.0840555496052; 19.99226935311052
16333; -20925; 6106; -3954; 3954; -17024; 50.0840555496052; 19.99226935311052
29761; 30270; 8481; -29344; 21904; -27820; 50.0840555496052; 19.99226935311052
31289; 18295; 14510; -2896; -14142; 26912; 50.0840555496052; 19.99226935311052
4119; -17637; -20666; 26002; -1056; -25408; 50.0840555496052; 19.99226935311052
-1; -1; -1; 18752; -20676; 9440; 50.084061161069215; 19.99224072950821
19688; -20386; 24118; 31008; 13232; 23888; 50.084061161069215; 19.99224072950821
19225; -22237; 10084; 29312; 24332; -28112; 50.084061161069215; 19.99224072950821
26639; -13219; -30656; -28112; -29195; 2896; 50.084061161069215; 19.99224072950821
-7541; -23457; -31054; -1; -1; -1; 50.084061161069215; 19.99224072950821
19846; 30262; 310; -32240; 25392; -15664; 50.084061161069215; 19.99224072950821
-6785; -21158; 20605; 17632; 27820; -8976; 50.084061161069215; 19.99224072950821
15569; 5474; 27091; -1376; 27064; 19304; 50.084061161069215; 19.99224072950821
-22198; -8718; 32430; 1522; 15200; -1522; 50.084061161069215; 19.99224072950821
-17846; -26115; 8855; 31776; -32240; -15813; 50.084061161069215; 19.99224072950821
-23493; 3489; -30365; 26464; -17188; 21904; 50.084070836018974; 19.992204094644688
2299; 27596; -12354; 27208; -16424; -2896; 50.084070836018974; 19.992204094644688
-6860; -19937; -8002; -31328; -1376; 25072; 50.084070836018974; 19.992204094644688
16940; -29013; 19003; 23424; 26912; -30272; 50.084070836018974; 19.992204094644688
4426; -17803; -23372; -4384; 22810; 6384; 50.084070836018974; 19.992204094644688
-26383; -29304; 6189; 28112; 8667; 6832; 50.084070836018974; 19.992204094644688
-6710; -17039; 21137; -20232; -3192; -7907; 50.084070836018974; 19.992204094644688
-7699; 25761; -13350; 5768; 27524; 5008; 50.084070836018974; 19.992204094644688
30293; 8139; 32265; -5768; -7146; 2880; 50.084070836018974; 19.992204094644688
4816; -18251; -15393; -21752; -15052; -27984; 50.084070836018974; 19.992204094644688
11368; 1355; -31121; -30256; 8520; -24016; 50.08407564448658; 19.99217642950625
-14184; 29580; 18920; -1056; -12768; -22640; 50.08407564448658; 19.99217642950625
30143; -25883; -12885; 29024; 21140; 31328; 50.08407564448658; 19.99217642950625
-12507; 19508; 27315; -29808; -19916; -28584; 50.08407564448658; 19.99217642950625
23350; 2343; 14651; 23424; -23720; 28752; 50.08407564448658; 19.99217642950625
-8612; 12723; 26725; 24332; -1670; -25984; 50.08407564448658; 19.99217642950625
15188; 21791; 17242; 19936; -31626; 18112; 50.08407564448658; 19.99217642950625
3138; 7068; 12127; -9696; 14142; 20080; 50.08407564448658; 19.99217642950625
-11203; 11270; 12309; 14400; -14142; -18392; 50.08407564448658; 19.99217642950625
-3048; -27493; -7546; -32368; -31626; -16424; 50.08408060725388; 19.992144724525524
15345; 8671; -14205; -32240; -15052; -23256; 50.08408060725388; 19.992144724525524
-11128; 16527; 9478; 20064; 30866; -26448; 50.08408060725388; 19.992144724525524
29155; 26300; 30620; 15052; 20676; 8496; 50.08408060725388; 19.992144724525524
-8463; 18354; -11141; -5936; 12768; -16592; 50.08408060725388; 19.992144724525524
-22347; 30494; -21056; 18392; -29048; 11232; 50.08408060725388; 19.992144724525524
14955; 29738; -13948; 7146; -7146; -464; 50.08408060725388; 19.992144724525524
-11675; 6013; 21436; 24944; 1522; 21600; 50.08408060725388; 19.992144724525524
2831; -25276; 21212; 29216; -13532; 5504; 50.08408060725388; 19.992144724525524
-15322; 9352; -6857; -17952; -6236; -18560; 50.08408060725388; 19.992144724525524
24264; 8065; 18321; 7440; 24481; 7888; 50.08408493935025; 19.992117976378175
24796; -24587; -21438; 13848; 18858; 7146; 50.08408493935025; 19.992117976378175
32053; 28742; -28455; 10352; -15052; 4416; 50.08408493935025; 19.992117976378175
-4186; 1504; 13663; 29808; -3192; 30568; 50.08408493935025; 19.992117976378175
-3273; 9128; -27384; 32240; -3954; 761; 50.08408493935025; 19.992117976378175
20760; -25741; -32342; 23104; 19767; -13232; 50.08408493935025; 19.992117976378175
-24257; 32628; -8002; 15052; -21289; -6996; 50.08408493935025; 19.992117976378175
-1138; 20189; 6870; 21140; -20527; -23720; 50.08408493935025; 19.992117976378175
-12963; -7962; 26634; 19152; -11099; -26152; 50.08408493935025; 19.992117976378175
24040; -2315; 22972; -1670; -10190; 3192; 50.08409641029777; 19.992089867164687
3213; 30262; -29361; -3804; -17335; -19006; 50.08409641029777; 19.992089867164687
2067; 11636; 3515; 26764; 1522; 9429; 50.08409641029777; 19.992089867164687
13360; -22370; -19138; -1072; -13382; -5328; 50.08409641029777; 19.992089867164687
7714; 13936; 31442; 1816; 23720; 18858; 50.08409641029777; 19.992089867164687
-29671; 23618; -3053; 14608; 4714; 31480; 50.08409641029777; 19.992089867164687
14199; 14318; 29075; -22512; -30866; -20527; 50.08409641029777; 19.992089867164687
-2891; -15436; 10532; -320; 7907; -7760; 50.08409641029777; 19.992089867164687
6950; 5399; -14264; 1376; -15052; -11860; 50.084105054432705; 19.992061171609002
-5025; -3528; -25399; -30866; -7146; -24332; 50.084105054432705; 19.992061171609002
32053; 16609; 5343; -25242; 29956; 22958; 50.084105054432705; 19.992061171609002
16259; 8447; -2214; 24352; -3954; 2432; 50.084105054432705; 19.992061171609002
-19980; 22414; -28605; -18244; -11860; -28435; 50.084105054432705; 19.992061171609002
7489; -29104; -29302; -4714; -32388; -15052; 50.084105054432705; 19.992061171609002
21374; 583; 4205; -28435; 21436; -19767; 50.084105054432705; 19.992061171609002
15420; 6462; -23722; -12328; 18096; -29344; 50.08411073347094; 19.992030563026223
-1438; -25359; -30523; 4416; 10338; -30104; 50.08411073347094; 19.992030563026223
-23028; -17952; 27174; 592; -13382; -17800; 50.08411073347094; 19.992030563026223
-3655; 350; 18861; -13848; 17484; 28880; 50.08411073347094; 19.992030563026223
-7923; -12006; 19459; -18832; -13382; 22198; 50.08411073347094; 19.992030563026223
21374; 12408; 385; 31626; 6996; -26464; 50.08411073347094; 19.992030563026223
-10979; 16220; -9381; 3804; -26152; -29360; 50.08411073347094; 19.992030563026223
307; 12798; -20890; 17168; 19472; 3656; 50.08411073347094; 19.992030563026223
-26234; 1878; -16630; -12008; -20064; 22512; 50.08411073347094; 19.992030563026223
-31872; 32163; -10593; 19620; 24332; 18880; 50.08411073347094; 19.992030563026223
-16543; -571; 2901; -18832; -30104; 24656; 50.0841200645185; 19.99199611827573
12530; 28418; -14862; 25248; 30866; 32088; 50.0841200645185; 19.99199611827573
18409; -19205; 17184; 18624; -8080; 11072; 50.0841200645185; 19.99199611827573
21689; -19654; 32679; 9152; -28896; 25840; 50.0841200645185; 19.99199611827573
-8230; -20343; -24836; 13408; 21408; -20544; 50.0841200645185; 19.99199611827573
-3871; 18255; -20650; -1968; -22080; 25984; 50.0841200645185; 19.99199611827573
-6769; -32109; 8497; -4568; -22224; 20352; 50.0841200645185; 19.99199611827573
-12034; 30411; 27273; 8352; 32368; 7136; 50.084131219223764; 19.991967892172696
-11951; -20517; 26119; 27232; 28272; -8080; 50.084131219223764; 19.991967892172696
-14550; -1268; -16681; -28896; 6224; -11744; 50.084131219223764; 19.991967892172696
4674; 10931; 20322; -16872; -9440; -27552; 50.084131219223764; 19.991967892172696
-15464; 28560; 7891; -31776; -15392; 14112; 50.084131219223764; 19.991967892172696
26265; -15917; 13588; -28435; 10624; -28480; 50.084139861000864; 19.991953122816028
-13479; 12242; 29922; -19620; -21600; 12000; 50.084139861000864; 19.991953122816028
15652; -1891; 16495; -5312; 8656; -25408; 50.084139861000864; 19.991953122816028
8950; 12301; -5088; 6368; -9408; -32400; 50.084139861000864; 19.991953122816028
-26525; -3843; -17835; -3680; -7136; -28608; 50.084139861000864; 19.991953122816028
25434; 1106; -4623; -14752; 1200; 22368; 50.084139861000864; 19.991953122816028
20626; -6675; 1389; 32704; -21024; -2752; 50.084139861000864; 19.991953122816028
-32171; 3465; -1974; -14464; 2432; 12328; 50.084139861000864; 19.991953122816028
-5848; -4466; 4362; 8667; -14904; 14142; 50.084139861000864; 19.991953122816028
-5623; -29644; -28979; -13440; -27524; 4416; 50.08412520600742; 19.991938899704152
-31432; -5072; 23968; 2464; -7776; -6240; 50.08412520600742; 19.991938899704152
6741; -10868; -3045; -15072; 1360; -25408; 50.08412520600742; 19.991938899704152
-21500; 11262; -31802; -15052; -26002; 27673; 50.08412520600742; 19.991938899704152
4367; -29021; -15401; 8056; 31160; 26272; 50.08412520600742; 19.991938899704152
15204; 16527; -9755; -28272; -25248; 24448; 50.08412520600742; 19.991938899704152
-18984; 15455; -28671; -19152; 24928; -15232; 50.08410276020846; 19.991951370608696
30368; 8380; 12667; -24384; 22198; -5152; 50.08410276020846; 19.991951370608696
-13711; -5978; -24552; -32388; 20512; -320; 50.08410276020846; 19.991951370608696
-24922; 25056; 12750; -908; -22958; -4448; 50.08410276020846; 19.991951370608696
-27844; 4344; -28306; 22144; -1984; 4384; 50.08410276020846; 19.991951370608696
-25470; 25710; 6181; -7920; -14440; -6236; 50.08410276020846; 19.991951370608696
-4336; -31746; 22283; 2728; -16424; 2752; 50.08410276020846; 19.991951370608696
1186; -22378; 27008; 12944; -16280; 29792; 50.08410276020846; 19.991951370608696
32277; -28990; -2596; -6996; -5024; 30128; 50.0840877898513; 19.991957395961734
-22390; -24886; 20223; -7440; -7760; 16704; 50.0840877898513; 19.991957395961734
12979; -22422; 15797; -11536; -12472; 21904; 50.0840877898513; 19.991957395961734
-17373; 28001; -25872; 20256; -10656; 25242; 50.0840877898513; 19.991957395961734
2299; -28316; 14868; -7872; 30866; -29956; 50.0840877898513; 19.991957395961734
10388; -18326; 18006; 25408; 32240; -29808; 50.08407174407526; 19.99197651969917
19614; -26107; 9453; -23712; -29344; 29344; 50.08407174407526; 19.99197651969917
-25852; -20161; -2289; -24672; 30866; -20352; 50.08407174407526; 19.99197651969917
8419; 32105; -1634; 8320; 32536; 761; 50.08407174407526; 19.99197651969917
19622; -25875; -537; 17632; 31480; -31920; 50.08407174407526; 19.99197651969917
-15629; -689; 16786; -18858; -20527; -1200; 50.08407174407526; 19.99197651969917
10628; 16775; -28132; -19152; 11072; -30718; 50.08407174407526; 19.99197651969917
11309; -27111; 12036; 26944; -12768; 5476; 50.08407174407526; 19.99197651969917
-28210; 9061; 19077; 928; -16724; -14176; 50.08407174407526; 19.99197651969917
-16708; -18625; 19775; -3656; -23720; -30912; 50.08404851391372; 19.99199836302669
3662; -32443; -13134; -22496; 9136; 6996; 50.08404851391372; 19.99199836302669
-1587; -8710; 29457; -32388; 29048; -29472; 50.08404851391372; 19.99199836302669
-4336; -19622; 15274; 19600; 24481; -24776; 50.08404851391372; 19.99199836302669
-366; -13136; -10834; 3192; -6236; -24016; 50.08404851391372; 19.99199836302669
23209; 18071; -13566; -4416; -21904; -20080; 50.08404851391372; 19.99199836302669
4816; 25694; -19072; 30424; -13382; -21456; 50.08404851391372; 19.99199836302669
11915; -21067; 21369; -27064; -10190; 14904; 50.08403510389164; 19.992029809470132
-13653; 14857; -5403; -23744; 10338; 14584; 50.08403510389164; 19.992029809470132
-25702; 12656; 3449; -16400; -12008; -17648; 50.08403510389164; 19.992029809470132
2839; 11270; -387; 6536; -7146; -2880; 50.08403510389164; 19.992029809470132
24579; 1811; 30296; 24160; -16574; -31936; 50.08403510389164; 19.992029809470132
-682; 7998; -23938; -2016; 13680; 16574; 50.08403510389164; 19.992029809470132
16873; -5131; -31960; -10338; -14142; -13360; 50.08403510389164; 19.992029809470132
-5092; -21075; -26545; -27673; -32240; -18544; 50.08403510389164; 19.992029809470132
-25852; 10274; -15783; 18240; 28584; 10016; 50.08403510389164; 19.992029809470132
22512; -25194; 31284; 2400; -2284; 20512; 50.08402463414978; 19.99206394350104
14050; 17763; 12899; -28284; 24628; 23868; 50.08402463414978; 19.99206394350104
30982; -26257; 22432; -1670; -25092; 20064; 50.08402463414978; 19.99206394350104
-27222; -14664; -18914; -23392; 21904; 31456; 50.08402463414978; 19.99206394350104
-23784; 2343; 27008; 15488; 31480; 14272; 50.08402463414978; 19.99206394350104
11833; 14617; 6264; 1360; 28728; 23840; 50.08402463414978; 19.99206394350104
-4792; 20421; 23736; 4272; 12176; 1984; 50.08402463414978; 19.99206394350104
1851; -12247; 26410; -14128; 6384; 448; 50.08400968346822; 19.99208739999695
-1220; -1220; -1220; -14142; 15664; 1522; 50.08400968346822; 19.99208739999695
23749; -6974; -17370; -10816; 17776; -20824; 50.08400968346822; 19.99208739999695
-8544; -1220; -1220; 28608; -17800; 7888; 50.08400968346822; 19.99208739999695
-8380; 21252; 20066; -6560; 17484; 13968; 50.08400968346822; 19.99208739999695
14739; -18342; -25931; -148; 18858; 8832; 50.08400968346822; 19.99208739999695
-8222; 26757; 2137; -9920; -20527; -20527; 50.08400968346822; 19.99208739999695
4044; -173; -11988; -17952; -2136; -30544; 50.08400968346822; 19.99208739999695
-27911; 20961; -28364; -8256; -31936; -25536; 50.08400968346822; 19.99208739999695
6285; 9600; 23968; -21888; -13532; 4400; 50.08399347663312; 19.99211391211713
-19299; 31042; 9461; -16592; 3954; 5024; 50.08399347663312; 19.99211391211713
1228; 6702; -14413; 22664; 14142; -4384; 50.08399347663312; 19.99211391211713
-2193; -1162; 12659; -30912; -13088; 4288; 50.08399347663312; 19.99211391211713
31447; -12372; -6175; 5024; 20676; -21728; 50.08399347663312; 19.99211391211713
3902; -31297; -4722; -19792; 23424; 25536; 50.08399347663312; 19.99211391211713
21426; -28308; -2049; -4880; 13382; 19620; 50.08397542507683; 19.992136527475488
-29589; -22279; -1450; 9136; 1200; 12480; 50.08397542507683; 19.992136527475488
-21965; 28675; 16246; 7456; 29956; -20380; 50.08397542507683; 19.992136527475488
13136; -29612; 18164; 17504; 14904; -26928; 50.08397542507683; 19.992136527475488
2291; -16109; -19910; -23712; -21728; 6536; 50.08397542507683; 19.992136527475488
-14716; 13869; 20912; 26448; -3954; 8968; 50.08397542507683; 19.992136527475488
-20595; 8439; -24710; -29344; -1816; -10338; 50.08397542507683; 19.992136527475488
-17838; -31604; -27309; 1072; -10488; 4416; 50.08397542507683; 19.992136527475488
-524; -8486; 14120; 20512; 18858; -16704; 50.08397542507683; 19.992136527475488
-15098; 11179; -9904; -13248; -10952; -21408; 50.08395898916788; 19.992156969980634
-25320; 3780; -22950; -4714; 8667; -17776; 50.08395898916788; 19.992156969980634
6501; -26040; 8323; -28272; 12621; -15664; 50.08395898916788; 19.992156969980634
22520; -18783; 25181; -27376; -2284; -11408; 50.08395898916788; 19.992156969980634
6800; -17346; 15415; 23072; -16280; -22810; 50.08395898916788; 19.992156969980634
-11743; 10738; -12570; -6112; -23572; -12472; 50.08395898916788; 19.992156969980634
20378; -4981; -27384; 16574; -4714; -2728; 50.08395898916788; 19.992156969980634
12829; -1851; -26022; -20380; -6996; 26464; 50.08395898916788; 19.992156969980634
-25544; -28474; -14114; 18544; -12472; -5328; 50.08395898916788; 19.992156969980634
-32113; -21000; -11731; 2592; 6536; 10304; 50.08394347326042; 19.992185686004017
3213; -27867; 26693; -3632; -3488; 6680; 50.08394347326042; 19.992185686004017
1378; -25351; -1135; -15813; -18096; 10952; 50.08394347326042; 19.992185686004017
-23111; -19090; 476; 31016; -12008; -15960; 50.08394347326042; 19.992185686004017
-25844; -32077; 15258; 2136; 11408; 12192; 50.08394347326042; 19.992185686004017
18542; 25902; 32297; 17472; 12621; -31616; 50.08394347326042; 19.992185686004017
8029; -17578; 16943; -19904; -30866; 26448; 50.08394347326042; 19.992185686004017
31447; -12995; -25707; 23280; -27673; -18096; 50.08394347326042; 19.992185686004017
3296; 18196; -13882; 24464; -8520; 25408; 50.083928136339225; 19.992210658024685
-2276; 14782; 6205; 14904; 4248; -6704; 50.083928136339225; 19.992210658024685
21457; 15530; -9763; 21436; -26912; -25552; 50.083928136339225; 19.992210658024685
-15098; 27289; 25811; 25392; 28728; -5936; 50.083928136339225; 19.992210658024685
-17157; 30246; -12420; -8864; 20064; 10338; 50.083928136339225; 19.992210658024685
-19898; 24607; -454; 26176; -27208; -5936; 50.083928136339225; 19.992210658024685
20535; 3414; -5112; 11392; 21289; -6384; 50.083928136339225; 19.992210658024685
22055; -18858; -31196; -17648; -12768; -27504; 50.083928136339225; 19.992210658024685
18094; -29852; -24793; -3456; 32088; 24512; 50.083928136339225; 19.992210658024685
-10963; -11774; 10001; 22976; -24628; 11860; 50.083928136339225; 19.992210658024685
27021; 25603; -31129; -19767; 4100; 31160; 50.083910505121366; 19.99223947709654
-29364; -25343; -10901; -29504; -18096; 29195; 50.083910505121366; 19.99223947709654
-25852; -19015; -10684; -1344; -11248; 27072; 50.083910505121366; 19.99223947709654
-21957; 6927; 916; 4568; -21289; 22368; 50.083910505121366; 19.99223947709654
27095; -2997; 25413; 18244; -29808; 7760; 50.083910505121366; 19.99223947709654
-6395; -2540; -4340; -7760; -6848; -12176; 50.083910505121366; 19.99223947709654
4741; -11990; 15325; -9408; -7146; 7760; 50.083910505121366; 19.99223947709654
-15704; -14747; 8000; -13848; 32536; 22664; 50.083893575668284; 19.99226502350252
20303; 1737; -11963; -32416; 30866; -11872; 50.083893575668284; 19.99226502350252
21059; 13637; 11903; -9536; 19767; -30704; 50.083893575668284; 19.99226502350252
19397; 8289; -6549; -25824; -31480; 7907; 50.083893575668284; 19.99226502350252
-9451; 13936; -29070; 11536; 15813; -1376; 50.083893575668284; 19.99226502350252
8627; 27056; -12952; -30866; -4100; 10176; 50.083893575668284; 19.99226502350252
3819; 17216; -32358; 16256; 9896; 22496; 50.083893575668284; 19.99226502350252
-18378; 31715; 32738; 12160; 26764; 10656; 50.083893575668284; 19.99226502350252
-21666; -6958; 26410; 7584; -23572; -7888; 50.08387971423253; 19.99229024832563
-19366; -10553; -8550; 27968; -3192; -28896; 50.08387971423253; 19.99229024832563
-25552; 12333; -20517; -10338; -10040; -15520; 50.08387971423253; 19.99229024832563
-8695; -20626; 1531; -28435; -12768; -6704; 50.08387971423253; 19.99229024832563
-15180; 6088; -12047; -11696; 3656; 27232; 50.08387971423253; 19.99229024832563
21598; 16236; -17851; 6680; 22810; 29216; 50.08387971423253; 19.99229024832563
-28143; -11242; 27398; 1984; 9576; -10304; 50.08387971423253; 19.99229024832563
-22497; 31482; 24417; -13532; 25092; -25680; 50.08387971423253; 19.99229024832563
-28600; -6052; -13874; -20352; -22958; -11536; 50.083863128217175; 19.99232402213032
5654; -1103; 29831; -2880; -296; 9429; 50.083863128217175; 19.99232402213032
-31042; -6891; -31578; -4272; 20380; 24628; 50.083863128217175; 19.99232402213032
18850; 19732; -22584; 5768; 10040; -24481; 50.083863128217175; 19.99232402213032
-28600; -20543; -13783; -28728; 22958; 26616; 50.083863128217175; 19.99232402213032
6343; -6675; 14112; 1088; 10800; -31920; 50.083863128217175; 19.99232402213032
2150; -26671; -5187; -31008; 30866; -9120; 50.083863128217175; 19.99232402213032
-17149; -31238; 8323; -13968; -13382; 27064; 50.083863128217175; 19.99232402213032
-9144; -8868; 1232; -1840; -4416; 27360; 50.083863128217175; 19.99232402213032
7946; -28215; -8873; 30544; 1056; 27820; 50.08385291314569; 19.992354871824258
10986; -22685; -1359; 12784; -15813; -6224; 50.08385291314569; 19.992354871824258
14365; -24254; 12202; -8352; 9896; 30424; 50.08385291314569; 19.992354871824258
25717; 12400; -1965; 13532; -4714; 13072; 50.08385291314569; 19.992354871824258
-20213; 27347; -1982; -9136; 28435; -26464; 50.08385291314569; 19.992354871824258
6950; 27355; -19902; -30544; -15200; -19006; 50.08385291314569; 19.992354871824258
13585; -31762; 29839; -32088; -30866; -26912; 50.0838359605817; 19.99237815244438
28848; 21941; -4498; -2896; -148; 3680; 50.0838359605817; 19.99237815244438
15121; 3331; -28589; 15664; -26912; -5600; 50.0838359605817; 19.99237815244438
24280; 10407; 21594; 4576; -10040; 464; 50.0838359605817; 19.99237815244438
-32038; -6750; -31570; 24481; 12008; 22944; 50.0838359605817; 19.99237815244438
-25021; 342; 20141; -11099; 29488; -6704; 50.0838359605817; 19.99237815244438
-4718; 22481; 17956; 24481; 13680; -2896; 50.0838359605817; 19.99237815244438
-27836; -3469; -21513; 28096; 27673; -28284; 50.0838359605817; 19.99237815244438
26398; -11242; 19385; -12176; -9429; -15376; 50.0838359605817; 19.99237815244438
20070; -16881; 22889; 7292; -4714; 8667; 50.0838359605817; 19.99237815244438
23740; 16834; -8683; 22224; 27820; 1522; 50.083822760676064; 19.992403248013378
13967; -31762; -20450; -8224; 12328; 17484; 50.083822760676064; 19.992403248013378
27710; -10171; -10294; 4100; -28284; -2752; 50.083822760676064; 19.992403248013378
8552; 25836; -26612; 29656; -32388; 12008; 50.083822760676064; 19.992403248013378
22130; 31864; 12293; -5328; 14142; 7440; 50.083822760676064; 19.992403248013378
-29057; -13227; -16331; -28896; 761; -31456; 50.083822760676064; 19.992403248013378
-13802; 26450; 17101; -640; -24481; 4568; 50.083822760676064; 19.992403248013378
-5938; 22705; -32267; -29760; 10338; -7264; 50.083822760676064; 19.992403248013378
6576; -11632; 11545; 19648; 7146; 24944; 50.083807619676236; 19.992431639630777
9009; -339; -23564; 2432; -9429; -10656; 50.083807619676236; 19.992431639630777
16641; 12026; -25001; 13216; 9576; 16096; 50.083807619676236; 19.992431639630777
-24639; -30392; 9453; -7146; -29956; -25704; 50.083807619676236; 19.992431639630777
12979; -28789; 12060; 29504; 24332; -25680; 50.083807619676236; 19.992431639630777
5580; 8513; -15019; 17024; -13532; -2728; 50.083807619676236; 19.992431639630777
14963; 19956; -13716; 32688; 23572; 24032; 50.0837935960505; 19.99246261837961
16641; 1953; 11769; -1072; -15813; 20232; 50.0837935960505; 19.99246261837961
4052; -6824; -32018; -12472; 908; -23868; 50.0837935960505; 19.99246261837961
21756; -31396; -32342; -7146; 6536; 20064; 50.0837935960505; 19.99246261837961
6036; 24465; 17333; -464; 27064; -9744; 50.0837935960505; 19.99246261837961
32128; -1709; 16711; -18244; -20527; -28284; 50.0837935960505; 19.99246261837961
-2733; 23162; 16786; -896; 7608; 32240; 50.0837935960505; 19.99246261837961
6725; -8959; -19520; 761; 6996; 10190; 50.08377745334523; 19.99248586495537
-27687; -31014; -26911; 26592; 12920; 23104; 50.08377745334523; 19.99248586495537
-14641; -11266; -17693; -15352; -2284; -3656; 50.08377745334523; 19.99248586495537
16491; -2697; -30424; 296; -8520; -1072; 50.08377745334523; 19.99248586495537
31289; 8588; -25931; -29048; -7292; 19620; 50.08377745334523; 19.99248586495537
1760; -7895; -902; -3340; -22344; -30544; 50.08377745334523; 19.99248586495537
8860; 16901; -10892; 16256; 28435; 4416; 50.08377745334523; 19.99248586495537
-17614; -27726; 11604; -27208; 21289; 17800; 50.08377745334523; 19.99248586495537
22295; 30080; -18024; 29024; -20848; 16724; 50.083760833663476; 19.992505202093255
-17697; -16499; -31612; -5152; -23744; -32560; 50.083760833663476; 19.992505202093255
-10522; -24529; -12952; 10488; 23868; 32672; 50.083760833663476; 19.992505202093255
-1828; -10794; -30664; 13216; -4568; 13952; 50.083760833663476; 19.992505202093255
23500; -26305; -24486; 17168; -13532; -24481; 50.083760833663476; 19.992505202093255
3370; 11801; 724; 11696; -6996; 3936; 50.083760833663476; 19.992505202093255
-16842; -25226; -919; 16872; 22958; 19767; 50.083760833663476; 19.992505202093255
11833; 24150; -12113; 31008; 15960; 2880; 50.083760833663476; 19.992505202093255
-7624; 30652; -13724; 23104; 29048; -12621; 50.08374572552039; 19.992530875241318
-4186; 5698; -9995; -24332; 761; -3024; 50.08374572552039; 19.992530875241318
30293; 27438; 20987; 10656; -29344; 18112; 50.08374572552039; 19.992530875241318
4134; 30262; -31885; 1968; -24481; -3936; 50.08374572552039; 19.992530875241318
-23792; -6891; 12368; 25840; -27524; -12768; 50.08374572552039; 19.992530875241318
8403; -862; -24876; -13382; -9280; -26152; 50.08374572552039; 19.992530875241318
-10364; -3536; 27481; -296; -13992; 5008; 50.08374572552039; 19.992530875241318
25260; -7588; -16705; -15052; -17188; -8976; 50.08374572552039; 19.992530875241318
27013; -18342; -11133; 10488; -26002; 14880; 50.08374572552039; 19.992530875241318
24571; 31715; -28896; -30400; -29195; 12008; 50.08374572552039; 19.992530875241318
5347; -6368; 2677; 17800; 6704; -3192; 50.08373362459337; 19.992562851206774
22977; 22929; -28065; 3504; 21140; 11860; 50.08373362459337; 19.992562851206774
13817; -24446; 4138; -10656; -3954; 2284; 50.08373362459337; 19.992562851206774
-25320; -114; 8962; 22336; 6384; 18560; 50.08373362459337; 19.992562851206774
-21808; 25819; 23819; 9744; 5476; -2432; 50.08373362459337; 19.992562851206774
24729; -7588; 15033; -12008; 17335; -2576; 50.08373362459337; 19.992562851206774
-26998; -16814; 11305; -19620; -29956; 27968; 50.08373362459337; 19.992562851206774
-6096; 14999; -29518; -8352; 23720; -32688; 50.08372154527349; 19.992589154635205
21374; 15381; -3643; -11536; 9429; 13382; 50.08372154527349; 19.992589154635205
1153; -28415; 5732; 20527; 18096; 8056; 50.08372154527349; 19.992589154635205
3288; 17058; -7703; 11072; -30866; -8224; 50.08372154527349; 19.992589154635205
-31806; 9435; 1397; 1522; 28584; 29488; 50.08372154527349; 19.992589154635205
3670; 5391; 19369; -2400; -17632; -30256; 50.08372154527349; 19.992589154635205
-9990; -28332; 2519; 15664; 23424; -3488; 50.08372154527349; 19.992589154635205
-831; -12687; -11582; -7200; -26002; -31626; 50.08372154527349; 19.992589154635205
-18610; -11392; 7709; 24160; 16574; 31184; 50.08372154527349; 19.992589154635205
21598; -7431; 14179; -29656; 20848; -32224; 50.08370460171422; 19.992611191880833
9466; 23162; 22125; -1056; -8056; 8056; 50.08370460171422; 19.992611191880833
13742; -28856; -21040; -16280; 31626; -16736; 50.08370460171422; 19.992611191880833
-19531; -25816; 6921; 21120; -31626; 13532; 50.08370460171422; 19.992611191880833
-22497; 3107; -24718; 11392; 2136; 32388; 50.08370460171422; 19.992611191880833
-32187; 15472; 30230; -3340; 19006; 14608; 50.08370460171422; 19.992611191880833
10238; 20106; -10452; -12736; -13232; -6816; 50.08370460171422; 19.992611191880833
-16618; -16357; 2012; -31920; 13232; -23424; 50.08368862669778; 19.99263719449805
2980; -18409; -26545; -27328; -7146; -3656; 50.08368862669778; 19.99263719449805
-32113; 31258; -16374; 2112; 15648; 30080; 50.08368862669778; 19.99263719449805
30525; -31180; -11291; -18244; -11712; -22496; 50.08368862669778; 19.99263719449805
20153; 26068; -10203; -8832; -21904; -20080; 50.08368862669778; 19.99263719449805
-1753; 18437; -7180; 960; 18560; -27524; 50.08368862669778; 19.99263719449805
30309; 18055; 7469; -31184; 17632; -15352; 50.08368862669778; 19.99263719449805
5654; 20961; 32679; 29488; 5328; 26464; 50.08367519770283; 19.9926649760205
-22796; 9635; 22881; -23720; 21584; 10816; 50.08367519770283; 19.9926649760205
25733; -13069; -21572; -11408; 25242; -32388; 50.08367519770283; 19.9926649760205
-28675; 19815; 31982; -16160; 23868; -26616; 50.08367519770283; 19.9926649760205
15652; 31399; -20343; 27840; 13680; 17024; 50.08367519770283; 19.9926649760205
9092; 29930; 30678; 32064; 31480; -15200; 50.08367519770283; 19.9926649760205
-20055; -10786; -21729; 11392; -19620; -20864; 50.08367519770283; 19.9926649760205
6800; 22638; -24187; 8200; -29956; -21289; 50.08367519770283; 19.9926649760205
-25777; -13294; -28057; -7146; -32388; 31776; 50.08367519770283; 19.9926649760205
28383; -11857; 1747; 12352; -10190; -26152; 50.08365845429408; 19.992685744079886
-25462; -29312; -29908; 25408; -23256; -16736; 50.08365845429408; 19.992685744079886
13983; -1079; 4279; -31016; 6996; -22496; 50.08365845429408; 19.992685744079886
-5714; 10183; -16595; -448; -20976; -27328; 50.08365845429408; 19.992685744079886
-27305; 24607; -30108; -29056; 4714; 10512; 50.08365845429408; 19.992685744079886
13136; 29348; 3232; 16424; -1522; 14128; 50.08365845429408; 19.992685744079886
-16468; 18968; -12885; -5624; 28435; -3340; 50.08365845429408; 19.992685744079886
-18220; -29935; -9904; 29808; 5476; 25242; 50.08364233068428; 19.992710561530707
28391; -19023; 25870; -1072; -15052; -27820; 50.08364233068428; 19.992710561530707
-10672; 2185; 16022; -908; 19620; 19936; 50.08364233068428; 19.992710561530707
-31573; 24308; 31749; -5624; -3192; -25840; 50.08364233068428; 19.992710561530707
-31042; -18342; -24702; -1; -1; -1; 50.08364233068428; 19.992710561530707
-3265; 29348; -25699; -17632; -19006; -29488; 50.08364233068428; 19.992710561530707
-3190; 7060; 19850; 2880; 29488; 2256; 50.08364233068428; 19.992710561530707
-30742; 31333; -15401; 6208; -28896; 12896; 50.08364233068428; 19.992710561530707
-3198; -22221; 26559; 28435; -31480; 10928; 50.08364233068428; 19.992710561530707
-32030; -20161; -21214; 15216; -908; 13088; 50.08362590480311; 19.992739030943472
-25702; 14932; -30050; 21436; -4714; -7608; 50.08362590480311; 19.992739030943472
20228; 4477; -20225; -14142; 1522; -11560; 50.08362590480311; 19.992739030943472
17712; 14168; -2513; 4714; -30718; -18096; 50.08362590480311; 19.992739030943472
-16393; 19740; 23512; -23280; -19767; -10190; 50.08362590480311; 19.992739030943472
21905; -24512; 9769; -16424; -11860; 14292; 50.08362590480311; 19.992739030943472
-15098; 26300; -28388; -5008; -18244; -20824; 50.08362590480311; 19.992739030943472
-5864; 7533; 19393; -9576; 9429; -1968; 50.08362590480311; 19.992739030943472
5887; -23599; 12285; 13088; -30866; 18560; 50.08360889470983; 19.992757973535447
25725; -638; 8780; -296; 23720; 20380; 50.08360889470983; 19.992757973535447
-682; 26084; -6907; -12480; 10190; -1984; 50.08360889470983; 19.992757973535447
-28833; 20787; -19320; 1856; 8667; -29472; 50.08360889470983; 19.992757973535447
19607; 19972; -13326; 6368; -14736; 21140; 50.08360889470983; 19.992757973535447
-14782; -13152; 1066; 2896; 18858; -1968; 50.08360889470983; 19.992757973535447
18243; 24930; -16432; -28864; -6704; -27524; 50.08360889470983; 19.992757973535447
-28376; 13821; 1117; 31680; 21728; -10952; 50.08360889470983; 19.992757973535447
-3481; 17897; -28829; -21824; -7760; 32192; 50.08360889470983; 19.992757973535447
20145; 22756; 1106; 10016; -21904; -17188; 50.08359414517323; 19.99278503279452
22661; -10137; -30125; -4480; 27208; 1670; 50.08359414517323; 19.99278503279452
-2201; 11951; -26903; 23840; -9280; 6528; 50.08359414517323; 19.99278503279452
5654; -2249; -11365; -26152; -26448; -8496; 50.08359414517323; 19.99278503279452
-17988; -27053; -5702; -30718; -5792; -3360; 50.08359414517323; 19.99278503279452
23732; -19729; -20442; 2144; -32368; 18416; 50.08359414517323; 19.99278503279452
-28061; -17669; -21962; -13968; 2284; -5152; 50.08359414517323; 19.99278503279452
11915; 25595; -16008; 27968; -26296; -296; 50.08357717287257; 19.99280765745401
11226; -15676; -24710; -23744; -14142; -15813; 50.08357717287257; 19.99280765745401
32360; -18118; 12218; -28448; -21140; 29956; 50.08357717287257; 19.99280765745401
27552; 27970; -16473; -8368; 3192; -21436; 50.08357717287257; 19.99280765745401
-14176; -25824; 21834; 20512; 26448; -21456; 50.08357717287257; 19.99280765745401
8170; 8214; 13281; -9440; -7907; 23712; 50.08357717287257; 19.99280765745401
1610; 8829; 32505; -27504; 26764; -25552; 50.08357717287257; 19.99280765745401
20535; 16983; 23495; 16424; 27524; 14292; 50.08357717287257; 19.99280765745401
14124; 5166; -18000; 9856; 17188; 19006; 50.08356676643802; 19.992836369955196
-3655; 13487; -21289; 5176; -28435; 9744; 50.08356676643802; 19.992836369955196
30384; -10628; 19542; -5768; -32388; 30272; 50.08356676643802; 19.992836369955196
-11278; -11691; -22119; 4248; 28584; -15052; 50.08356676643802; 19.992836369955196
-10364; 30494; -18075; -21584; 18858; -10190; 50.08356676643802; 19.992836369955196
-31424; 7608; -29817; 18720; -27064; 5328; 50.08356676643802; 19.992836369955196
8104; -16814; 9544; 16768; -128; -26272; 50.08356676643802; 19.992836369955196
25359; 18736; 15888; -29168; -24160; -8352; 50.08356676643802; 19.992836369955196
-6753; -31121; -5860; 1408; -29024; -28608; 50.08355243603563; 19.992859543646905
24836; -13751; 6513; -11904; 1840; -15488; 50.08355243603563; 19.992859543646905
11451; 30769; -14838; 26336; 13952; -25664; 50.08355243603563; 19.992859543646905
-11982; -12896; -26588; -1600; -28480; -28096; 50.08355243603563; 19.992859543646905
23154; -11258; 10540; -5936; -26912; 10784; 50.08353680020193; 19.992881482985435
-28202; -6860; 23488; 11232; -10880; 24656; 50.08353680020193; 19.992881482985435
-19512; 27339; -4199; -5760; 1472; 29920; 50.08353680020193; 19.992881482985435
-25568; -7879; -13500; 30256; -32; 31008; 50.08353680020193; 19.992881482985435
-2060; 30013; 18255; 1504; 19328; -576; 50.08352710065723; 19.992890298755388
7797; 9635; -27525; -1522; 14208; -24704; 50.08352710065723; 19.992890298755388
-19082; -8376; 22523; -14912; -29632; 30784; 50.08352710065723; 19.992890298755388
-11345; -20402; -13267; 31920; -148; -7744; 50.08352710065723; 19.992890298755388
32742; 10124; -17311; -6560; 1200; 2136; 50.08352710065723; 19.992890298755388
-14633; 22705; 13738; 7608; 27360; 22664; 50.08352710065723; 19.992890298755388
-32502; -30541; 4205; -3776; 10190; 32536; 50.08352710065723; 19.992890298755388
5722; 11727; -13425; 14432; 32088; 13408; 50.08352710065723; 19.992890298755388
-20902; -8950; -30207; 8768; -3340; 32240; 50.08352710065723; 19.992890298755388
-2441; -14149; -26545; 21456; -32064; -22198; 50.08352710065723; 19.992890298755388
-12424; 425; -29900; -12448; -28728; 17168; 50.08352710065723; 19.992890298755388
-27230; 24623; 6646; -22198; -32688; 19304; 50.08352710065723; 19.992890298755388
-15090; 27289; 4894; 14292; -7292; -15200; 50.08352710065723; 19.992890298755388
32518; -8419; -7770; -19792; 296; -5768; 50.08354921763947; 19.99286599011607
11384; -20925; -5644; -29824; 8352; -11248; 50.08354921763947; 19.99286599011607
5804; 22406; -15177; 6384; -26002; 8224; 50.08354921763947; 19.99286599011607
1610; 9667; 1988; 15813; -19620; 24332; 50.08354921763947; 19.99286599011607
-27919; -10163; 22358; 29195; -5476; -15960; 50.08354921763947; 19.99286599011607
-682; -29620; 4886; -6996; -14904; 27376; 50.08354921763947; 19.99286599011607
22130; -1087; -8542; 13382; 3192; -1816; 50.08354921763947; 19.99286599011607
-23493; 16003; 4886; 7146; 28435; -908; 50.08354921763947; 19.99286599011607
24571; -10545; 21594; 14292; -3954; 5476; 50.08354921763947; 19.99286599011607
11907; 21193; -1218; -26002; 32388; 21289; 50.08354921763947; 19.99286599011607
24114; 26915; -14646; 19767; 11860; -11860; 50.08354921763947; 19.99286599011607
-23875; -22752; -21588; -26764; 11860; -32388; 50.08354921763947; 19.99286599011607
-8845; 7383; -10601; 27673; 3192; 28435; 50.08354921763947; 19.99286599011607
-23875; -25194; -4880; -8667; 3954; 4714; 50.08354921763947; 19.99286599011607
