ax; ay; az; gx; gy; gz; magx; magy; magz; magN; th; tm; ts; lati; loni; lat; lon
6628417; 13952636; 100231933; -6103515; -24414062; -24414062; 5800000000; 3000000000; 1100000000; 6265012359;0; 0; 0; 5009040770; 2000149260; 50.090553999271286; 20.001243060711445
6689453; 14062500; 100256347; -12207031; -24414062; -24414062; 5800000000; 3000000000; 1100000000; 6265012359;0; 0; 0; 5009040770; 2000149260; 50.090553999271286; 20.001243060711445
6530761; 14050292; 100280761; -6103515; -30517578; -18310546; 5800000000; 3000000000; 1100000000; 6265012359;0; 0; 0; 5009041110; 2000148410; 50.090553999271286; 20.001243060711445
6689453; 14050292; 100256347; -12207031; -30517578; -24414062; 5800000000; 3100000000; 1100000000; 6187626266;0; 0; 0; 5009041110; 2000148410; 50.090553999271286; 20.001243060711445
6628417; 13940429; 100280761; -6103515; -24414062; -24414062; 5800000000; 3000000000; 1100000000; 6265012359;0; 0; 0; 5009041449; 2000147459; 50.090553999271286; 20.001243060711445
6567382; 14038085; 100256347; -6103515; -24414062; -24414062; 5800000000; 3000000000; 1100000000; 6265012359;0; 0; 0; 5009041449; 2000147459; 50.090553999271286; 20.001243060711445
6665039; 13940429; 100219726; -12207031; -30517578; -18310546; 5800000000; 3000000000; 1100000000; 6265012359;0; 0; 0; 5009041810; 2000146639; 50.090553999271286; 20.001243060711445
6628417; 14025878; 100195312; -6103515; -30517578; -24414062; 5800000000; 3000000000; 1100000000; 6265012359;0; 0; 0; 5009041810; 2000146639; 50.090553999271286; 20.001243060711445
6616210; 13916015; 100231933; -12207031; -30517578; -24414062; 5800000000; 3000000000; 1100000000; 6265012359;0; 0; 0; 5009042119; 2000145659; 50.090553999271286; 20.001243060711445
6665039; 14062500; 100183105; -18310546; -18310546; -24414062; 5800000000; 3000000000; 1200000000; 6265012359;0; 0; 0; 5009042119; 2000145659; 50.090553999271286; 20.001243060711445
6579589; 14013671; 100317382; -6103515; -30517578; -24414062; 5800000000; 3000000000; 1100000000; 6265012359;0; 0; 0; 5009042380; 2000144700; 50.090553999271286; 20.001243060711445
6652832; 14025878; 100317382; -6103515; -30517578; -18310546; 5800000000; 3000000000; 1100000000; 6265012359;0; 0; 0; 5009042380; 2000144700; 50.090553999271286; 20.001243060711445
6628417; 13964843; 100268554; -18310546; -24414062; -24414062; 5800000000; 3000000000; 1100000000; 6265012359;0; 0; 0; 5009042600; 2000143800; 50.090553999271286; 20.001243060711445
6555175; 13977050; 100317382; -6103515; -24414062; -24414062; 5800000000; 3000000000; 1100000000; 6265012359;0; 0; 0; 5009042600; 2000143800; 50.090553999271286; 20.001243060711445
6567382; 13952636; 100280761; -12207031; -24414062; -24414062; 5800000000; 3000000000; 1100000000; 6265012359;0; 0; 0; 5009042860; 2000143109; 50.090553999271286; 20.001243060711445
6652832; 13940429; 100292968; -6103515; -36621093; -24414062; 5800000000; 3000000000; 1100000000; 6265012359;0; 0; 0; 5009042860; 2000143109; 50.090553999271286; 20.001243060711445
6665039; 13977050; 100329589; -12207031; -18310546; -24414062; 5800000000; 3000000000; 1100000000; 6265012359;0; 0; 0; 5009042940; 2000142529; 50.090553999271286; 20.001243060711445
6677246; 13916015; 100268554; -12207031; -18310546; -24414062; 5800000000; 3000000000; 1100000000; 6265012359;0; 0; 0; 5009042940; 2000142529; 50.090553999271286; 20.001243060711445
6616210; 13903808; 100280761; -6103515; -24414062; -24414062; 5800000000; 3000000000; 1100000000; 6265012359;0; 0; 0; 5009042930; 2000141829; 50.090553999271286; 20.001243060711445
6616210; 13977050; 100280761; -6103515; -24414062; -24414062; 5800000000; 3100000000; 1000000000; 6187626266;0; 0; 0; 5009042930; 2000141829; 50.090553999271286; 20.001243060711445
6591796; 13977050; 100292968; -18310546; -24414062; -24414062; 5800000000; 3000000000; 1100000000; 6265012359;0; 0; 0; 5009043029; 2000141670; 50.090553999271286; 20.001243060711445
6542968; 13879394; 100341796; -18310546; -18310546; -24414062; 5800000000; 3000000000; 1100000000; 6265012359;0; 0; 0; 5009043029; 2000141670; 50.090553999271286; 20.001243060711445
6640625; 13977050; 100341796; -12207031; -24414062; -24414062; 5800000000; 3000000000; 1100000000; 6265012359;0; 0; 0; 5009043130; 2000141030; 50.090553999271286; 20.001243060711445
6604003; 13964843; 100292968; -12207031; -24414062; -24414062; 5700000000; 3000000000; 1200000000; 6265012359;0; 0; 0; 5009043130; 2000141030; 50.090553999271286; 20.001243060711445
6628417; 13952636; 100378417; -12207031; -30517578; -24414062; 5800000000; 3000000000; 1100000000; 6265012359;0; 0; 0; 5009043200; 2000140379; 50.09059499946565; 20.00128426548489
6518554; 14025878; 100292968; -12207031; -24414062; -24414062; 5800000000; 3000000000; 1100000000; 6265012359;0; 0; 0; 5009043200; 2000140379; 50.09059499946565; 20.00128426548489
6665039; 13916015; 100341796; -12207031; -24414062; -24414062; 5800000000; 3000000000; 1100000000; 6265012359;0; 0; 0; 5009043290; 2000140060; 50.09059499946565; 20.00128426548489
6652832; 14050292; 100219726; -6103515; -30517578; -24414062; 5800000000; 3000000000; 1100000000; 6265012359;0; 0; 0; 5009043290; 2000140060; 50.09059499946565; 20.00128426548489
6738281; 14001464; 100256347; -6103515; -36621093; -24414062; 5800000000; 3000000000; 1100000000; 6265012359;0; 0; 0; 5009054550; 2000124920; 50.09059499946565; 20.00128426548489
6604003; 14001464; 100305175; -12207031; -30517578; -24414062; 5800000000; 3000000000; 1100000000; 6265012359;0; 0; 0; 5009054550; 2000124920; 50.09059499946565; 20.00128426548489
6628417; 13928222; 100268554; -12207031; -30517578; -24414062; 5800000000; 3000000000; 1100000000; 6265012359;0; 0; 0; 5009053859; 2000124030; 50.09059499946598; 20.00128426548489
6518554; 13879394; 100292968; -6103515; -30517578; -24414062; 5800000000; 3000000000; 1100000000; 6265012359;0; 0; 0; 5009053859; 2000124030; 50.09059499946598; 20.00128426548489
6555175; 13842773; 100268554; -12207031; -24414062; -24414062; 5800000000; 3000000000; 1100000000; 6265012359;0; 0; 0; 5009053850; 2000124580; 50.09059499946598; 20.00128426548489
6616210; 13989257; 100292968; -12207031; -30517578; -24414062; 5800000000; 3000000000; 1100000000; 6265012359;0; 0; 0; 5009053850; 2000124580; 50.09059499946598; 20.00128426548489
6555175; 13903808; 100292968; -12207031; -24414062; -24414062; 5800000000; 3000000000; 1100000000; 6265012359;0; 0; 0; 5009053990; 2000124629; 50.09059499946598; 20.00128426548489
6616210; 13916015; 100354003; -6103515; -30517578; -18310546; 5800000000; 3000000000; 1100000000; 6265012359;0; 0; 0; 5009053990; 2000124629; 50.09059499946598; 20.00128426548489
6579589; 13928222; 100256347; 0; -30517578; -24414062; 5800000000; 3000000000; 1100000000; 6265012359;0; 0; 0; 5009054320; 2000124169; 50.09059499946598; 20.00128426548489
6579589; 13903808; 100292968; -12207031; -24414062; -24414062; 5800000000; 3000000000; 1100000000; 6265012359;0; 0; 0; 5009054320; 2000124169; 50.09059499946598; 20.00128426548489
6640625; 13989257; 100378417; -12207031; -30517578; -24414062; 5800000000; 3000000000; 1100000000; 6265012359;0; 0; 0; 5009054649; 2000123700; 50.09059499946598; 20.00128426548489
6567382; 13879394; 100354003; -12207031; -24414062; -24414062; 5800000000; 3000000000; 1100000000; 6265012359;0; 0; 0; 5009054649; 2000123700; 50.09059499946598; 20.00128426548489
6579589; 14001464; 100390625; -12207031; -24414062; -24414062; 5800000000; 3000000000; 1100000000; 6265012359;0; 0; 0; 5009055000; 2000123539; 50.09059499946598; 20.00128426548489
6604003; 13952636; 100317382; -6103515; -30517578; -24414062; 5800000000; 3000000000; 1100000000; 6265012359;0; 0; 0; 5009055000; 2000123539; 50.09059499946598; 20.00128426548489
6567382; 14013671; 100378417; -12207031; -24414062; -24414062; 5800000000; 3000000000; 1100000000; 6265012359;0; 0; 0; 5009054960; 2000123340; 50.09059499946598; 20.00128426548489
6640625; 13952636; 100415039; -12207031; -24414062; -24414062; 5800000000; 3000000000; 1100000000; 6265012359;0; 0; 0; 5009054960; 2000123340; 50.09059499946598; 20.00128426548489
6542968; 14001464; 100341796; -6103515; -30517578; -24414062; 5800000000; 3000000000; 1100000000; 6265012359;0; 0; 0; 5009054940; 2000122869; 50.09059499946598; 20.00128426548489
6567382; 13977050; 100280761; -12207031; -30517578; -24414062; 5800000000; 3000000000; 1000000000; 6265012359;0; 0; 0; 5009054940; 2000122869; 50.09059499946598; 20.00128426548489
6677246; 14038085; 100256347; -18310546; -24414062; -24414062; 5800000000; 3000000000; 1100000000; 6265012359;0; 0; 0; 5009055020; 2000122760; 50.09059499946598; 20.00128426548489
6481933; 13916015; 100317382; -12207031; -24414062; -24414062; 5800000000; 3000000000; 1100000000; 6265012359;0; 0; 0; 5009055020; 2000122760; 50.09059499946598; 20.00128426548489
6591796; 13989257; 100305175; -18310546; -24414062; -24414062; 5800000000; 3000000000; 1200000000; 6265012359;0; 0; 0; 5009054949; 2000122750; 50.09059499946598; 20.00128426548489
6542968; 13867187; 100427246; -12207031; -24414062; -24414062; 5800000000; 3000000000; 1100000000; 6265012359;0; 0; 0; 5009054949; 2000122750; 50.09059499946598; 20.00128426548489
6481933; 13903808; 100366210; -12207031; -24414062; -24414062; 5800000000; 3000000000; 1100000000; 6265012359;0; 0; 0; 5009054949; 2000122739; 50.09059499946598; 20.00128426548489
6555175; 14013671; 100390625; -12207031; -24414062; -24414062; 5800000000; 3000000000; 1100000000; 6265012359;0; 0; 0; 5009054949; 2000122739; 50.09059499946598; 20.00128426548489
6469726; 13879394; 100305175; -18310546; -24414062; -24414062; 5800000000; 3000000000; 1200000000; 6265012359;0; 0; 0; 5009054940; 2000122660; 50.09059499946598; 20.00128426548489
6591796; 13964843; 100280761; -12207031; -24414062; -24414062; 5800000000; 3000000000; 1000000000; 6265012359;0; 0; 0; 5009054940; 2000122660; 50.09059499946598; 20.00128426548489
6616210; 13867187; 100402832; -12207031; -24414062; -24414062; 5800000000; 3000000000; 1100000000; 6265012359;0; 0; 0; 5009054860; 2000122799; 50.09059499946598; 20.00128426548489
6665039; 13867187; 100341796; -12207031; -18310546; -24414062; 5800000000; 3000000000; 1100000000; 6265012359;0; 0; 0; 5009054860; 2000122799; 50.09059499946598; 20.00128426548489
6506347; 13916015; 100354003; -12207031; -24414062; -24414062; 5800000000; 3000000000; 1100000000; 6265012359;0; 0; 0; 5009054740; 2000123150; 50.09059499946598; 20.00128426548489
6542968; 13940429; 100378417; -18310546; -24414062; -24414062; 5800000000; 3000000000; 1100000000; 6265012359;0; 0; 0; 5009054740; 2000123150; 50.09059499946598; 20.00128426548489
6530761; 13964843; 100329589; -12207031; -30517578; -24414062; 5800000000; 3000000000; 1100000000; 6265012359;0; 0; 0; 5009054560; 2000123559; 50.09059499946598; 20.00128426548489
6518554; 13952636; 100341796; -12207031; -30517578; -24414062; 5800000000; 3000000000; 1100000000; 6265012359;0; 0; 0; 5009054560; 2000123559; 50.09059499946598; 20.00128426548489
6555175; 13916015; 100415039; -18310546; -24414062; -24414062; 5800000000; 3000000000; 1100000000; 6265012359;0; 0; 0; 5009054440; 2000123929; 50.09059499946598; 20.00128426548489
6567382; 13891601; 100402832; -12207031; -30517578; -24414062; 5800000000; 3000000000; 1100000000; 6265012359;0; 0; 0; 5009054440; 2000123929; 50.09059499946598; 20.00128426548489
6555175; 13952636; 100366210; -6103515; -30517578; -24414062; 5800000000; 3000000000; 1100000000; 6265012359;0; 0; 0; 5009054370; 2000124229; 50.09059499946598; 20.00128426548489
6591796; 14001464; 100317382; -6103515; -24414062; -24414062; 5800000000; 3000000000; 1100000000; 6265012359;0; 0; 0; 5009054370; 2000124229; 50.09059499946598; 20.00128426548489
6604003; 13940429; 100366210; -12207031; -24414062; -24414062; 5800000000; 3000000000; 1100000000; 6265012359;0; 0; 0; 5009054510; 2000124079; 50.09059499946598; 20.00128426548489
6542968; 13928222; 100341796; -6103515; -30517578; -24414062; 5800000000; 3000000000; 1100000000; 6265012359;0; 0; 0; 5009054510; 2000124079; 50.09059499946598; 20.00128426548489
6628417; 13940429; 100366210; -12207031; -30517578; -24414062; 5700000000; 3000000000; 1100000000; 6265012359;0; 0; 0; 5009054150; 2000124659; 50.09059499946598; 20.00128426548489
6530761; 13903808; 100341796; -18310546; -24414062; -24414062; 5800000000; 3000000000; 1100000000; 6265012359;0; 0; 0; 5009054150; 2000124659; 50.09059499946598; 20.00128426548489
6530761; 13916015; 100354003; -12207031; -24414062; -24414062; 5800000000; 3000000000; 1100000000; 6265012359;0; 0; 0; 5009054399; 2000124490; 50.09059499946598; 20.00128426548489
6665039; 13916015; 100354003; -12207031; -24414062; -24414062; 5800000000; 3000000000; 1100000000; 6265012359;0; 0; 0; 5009054399; 2000124490; 50.09059499946598; 20.00128426548489
6604003; 13964843; 100268554; -12207031; -24414062; -18310546; 5800000000; 3000000000; 1100000000; 6265012359;0; 0; 0; 5009054360; 2000124449; 50.09059499946598; 20.00128426548489
6555175; 13964843; 100378417; -12207031; -18310546; -24414062; 5800000000; 3000000000; 1100000000; 6265012359;0; 0; 0; 5009054360; 2000124449; 50.09059499946598; 20.00128426548489
6555175; 13952636; 100390625; -12207031; -24414062; -24414062; 5800000000; 3000000000; 1100000000; 6265012359;0; 0; 0; 5009054370; 2000124400; 50.09059499946598; 20.00128426548489
6616210; 13818359; 100292968; -12207031; -24414062; -24414062; 5800000000; 3000000000; 1100000000; 6265012359;0; 0; 0; 5009054370; 2000124400; 50.09059499946598; 20.00128426548489
6640625; 13940429; 100390625; -12207031; -24414062; -24414062; 5800000000; 3000000000; 1100000000; 6265012359;0; 0; 0; 5009054320; 2000124379; 50.09059499946598; 20.00128426548489
6542968; 13952636; 100354003; -6103515; -30517578; -24414062; 5800000000; 3000000000; 1100000000; 6265012359;0; 0; 0; 5009054320; 2000124379; 50.09059499946598; 20.00128426548489
6591796; 13928222; 100390625; -12207031; -36621093; -24414062; 5800000000; 3000000000; 1000000000; 6265012359;0; 0; 0; 5009054310; 2000124379; 50.09059499946598; 20.00128426548489
6506347; 13977050; 100329589; -12207031; -30517578; -24414062; 5800000000; 3000000000; 1100000000; 6265012359;0; 0; 0; 5009054310; 2000124379; 50.09059499946598; 20.00128426548489
6616210; 13879394; 100366210; -12207031; -18310546; -24414062; 5800000000; 3000000000; 1100000000; 6265012359;0; 0; 0; 5009054320; 2000124349; 50.09059499946598; 20.00128426548489
6579589; 13977050; 100329589; -6103515; -24414062; -24414062; 5800000000; 3000000000; 1100000000; 6265012359;0; 0; 0; 5009054320; 2000124349; 50.09059499946598; 20.00128426548489
6555175; 14025878; 100292968; -18310546; -24414062; -24414062; 5800000000; 3000000000; 1100000000; 6265012359;0; 0; 0; 5009054380; 2000124250; 50.09059499946598; 20.00128426548489
6518554; 13940429; 100415039; -12207031; -24414062; -18310546; 5800000000; 3000000000; 1100000000; 6265012359;0; 0; 0; 5009054380; 2000124250; 50.09059499946598; 20.00128426548489
6640625; 13989257; 100415039; -6103515; -24414062; -24414062; 5800000000; 3000000000; 1100000000; 6265012359;0; 0; 0; 5009054320; 2000124289; 50.09059499946598; 20.00128426548489
6530761; 14025878; 100366210; -6103515; -30517578; -24414062; 5800000000; 3000000000; 1100000000; 6265012359;0; 0; 0; 5009054320; 2000124289; 50.09059499946598; 20.00128426548489
6579589; 13952636; 100354003; -6103515; -30517578; -24414062; 5800000000; 3000000000; 1100000000; 6265012359;0; 0; 0; 5009053910; 2000124820; 50.09059499946598; 20.00128426548489
6604003; 13928222; 100354003; 0; -36621093; -24414062; 5800000000; 3000000000; 1100000000; 6265012359;0; 0; 0; 5009053910; 2000124820; 50.09059499946598; 20.00128426548489
6567382; 13964843; 100390625; -12207031; -24414062; -24414062; 5800000000; 3000000000; 1100000000; 6265012359;0; 0; 0; 5009053609; 2000125269; 50.09059499946598; 20.00128426548489
6652832; 13916015; 100305175; -12207031; -18310546; -24414062; 5800000000; 3000000000; 1000000000; 6265012359;0; 0; 0; 5009053609; 2000125269; 50.09059499946598; 20.00128426548489
6738281; 13989257; 100317382; -12207031; -24414062; -24414062; 5800000000; 3000000000; 1100000000; 6265012359;0; 0; 0; 5009053680; 2000125160; 50.09059499946598; 20.00128426548489
6518554; 13891601; 100439453; -6103515; -30517578; -24414062; 5800000000; 3000000000; 1100000000; 6265012359;0; 0; 0; 5009053680; 2000125160; 50.09059499946598; 20.00128426548489
6542968; 13977050; 100378417; -12207031; -24414062; -24414062; 5800000000; 3000000000; 1100000000; 6265012359;0; 0; 0; 5009053660; 2000124950; 50.09059499946598; 20.00128426548489
6555175; 13916015; 100366210; -18310546; -24414062; -24414062; 5800000000; 3000000000; 1100000000; 6265012359;0; 0; 0; 5009053660; 2000124950; 50.09059499946598; 20.00128426548489
6616210; 13964843; 100439453; -18310546; -30517578; -18310546; 5800000000; 3000000000; 1200000000; 6265012359;0; 0; 0; 5009053670; 2000124890; 50.09059499946598; 20.00128426548489
6616210; 13977050; 100354003; -12207031; -30517578; -24414062; 5800000000; 3000000000; 1100000000; 6265012359;0; 0; 0; 5009053670; 2000124890; 50.09059499946598; 20.00128426548489
6567382; 14038085; 100415039; -6103515; -30517578; -24414062; 5800000000; 3000000000; 1100000000; 6265012359;0; 0; 0; 5009053720; 2000124749; 50.09059499946598; 20.00128426548489
6518554; 13964843; 100390625; -12207031; -30517578; -24414062; 5800000000; 3000000000; 1100000000; 6265012359;0; 0; 0; 5009053720; 2000124749; 50.09059499946598; 20.00128426548489
6591796; 13879394; 100305175; -12207031; -30517578; -24414062; 5800000000; 3000000000; 1000000000; 6265012359;0; 0; 0; 5009053790; 2000124700; 50.09059499946598; 20.00128426548489
6713867; 13964843; 100366210; -12207031; -24414062; -24414062; 5800000000; 3000000000; 1100000000; 6265012359;0; 0; 0; 5009053790; 2000124700; 50.09059499946598; 20.00128426548489
6616210; 13928222; 100366210; -12207031; -30517578; -30517578; 5800000000; 3000000000; 1100000000; 6265012359;0; 0; 0; 5009053799; 2000124610; 50.09059499946598; 20.00128426548489
6555175; 13916015; 100329589; -6103515; -30517578; -24414062; 5800000000; 3000000000; 1100000000; 6265012359;0; 0; 0; 5009053799; 2000124610; 50.09059499946598; 20.00128426548489
6628417; 14013671; 100378417; 0; -30517578; -24414062; 5800000000; 3000000000; 1100000000; 6265012359;0; 0; 0; 5009053680; 2000124730; 50.09059499946598; 20.00128426548489
6567382; 13891601; 100451660; -12207031; -24414062; -24414062; 5800000000; 3000000000; 1100000000; 6265012359;0; 0; 0; 5009053680; 2000124730; 50.09059499946598; 20.00128426548489
6604003; 13916015; 100439453; -12207031; -24414062; -24414062; 5800000000; 3000000000; 1100000000; 6265012359;0; 0; 0; 5009053549; 2000124920; 50.09059499946598; 20.00128426548489
6542968; 13928222; 100415039; 0; -36621093; -24414062; 5800000000; 3000000000; 1100000000; 6265012359;0; 0; 0; 5009053549; 2000124920; 50.09059499946598; 20.00128426548489
6542968; 13854980; 100415039; -6103515; -30517578; -24414062; 5800000000; 3000000000; 1100000000; 6265012359;0; 0; 0; 5009053520; 2000124929; 50.09059499946598; 20.00128426548489
6628417; 13952636; 100354003; -18310546; -24414062; -24414062; 5800000000; 3000000000; 1100000000; 6265012359;0; 0; 0; 5009053520; 2000124929; 50.09059499946598; 20.00128426548489
6567382; 13940429; 100415039; -12207031; -30517578; -24414062; 5800000000; 3000000000; 1100000000; 6265012359;0; 0; 0; 5009053570; 2000124880; 50.09059499946598; 20.00128426548489
6555175; 13916015; 100366210; -12207031; -30517578; -24414062; 5800000000; 3000000000; 1100000000; 6265012359;0; 0; 0; 5009053570; 2000124880; 50.09059499946598; 20.00128426548489
6481933; 13928222; 100366210; -12207031; -24414062; -24414062; 5800000000; 3000000000; 1100000000; 6265012359;0; 0; 0; 5009053540; 2000124880; 50.09059499946598; 20.00128426548489
6579589; 13977050; 100390625; -12207031; -24414062; -24414062; 5800000000; 3000000000; 1100000000; 6265012359;0; 0; 0; 5009053540; 2000124880; 50.09059499946598; 20.00128426548489
6591796; 13940429; 100415039; -12207031; -30517578; -24414062; 5800000000; 3000000000; 1100000000; 6265012359;0; 0; 0; 5009053500; 2000124860; 50.09059499946598; 20.00128426548489
6591796; 13977050; 100378417; 0; -30517578; -24414062; 5800000000; 3000000000; 1100000000; 6265012359;0; 0; 0; 5009053500; 2000124860; 50.09059499946598; 20.00128426548489
6494140; 14001464; 100439453; -18310546; -24414062; -24414062; 5800000000; 3000000000; 1100000000; 6265012359;0; 0; 0; 5009053500; 2000124860; 50.09059499946598; 20.00128426548489
6555175; 14001464; 100366210; -6103515; -30517578; -24414062; 5800000000; 3000000000; 1100000000; 6265012359;0; 0; 0; 5009053500; 2000124860; 50.09059499946598; 20.00128426548489
6555175; 13940429; 100390625; -6103515; -30517578; -24414062; 5800000000; 3000000000; 1100000000; 6265012359;0; 0; 0; 5009053429; 2000124910; 50.09059499946598; 20.00128426548489
6567382; 13818359; 100341796; -12207031; -30517578; -24414062; 5800000000; 3000000000; 1100000000; 6265012359;0; 0; 0; 5009053429; 2000124910; 50.09059499946598; 20.00128426548489
6542968; 14001464; 100415039; -12207031; -30517578; -24414062; 5800000000; 3000000000; 1100000000; 6265012359;0; 0; 0; 5009053369; 2000124959; 50.09059499946598; 20.00128426548489
6433105; 13928222; 100427246; -12207031; -24414062; -24414062; 5800000000; 3000000000; 1100000000; 6265012359;0; 0; 0; 5009053369; 2000124959; 50.09059499946598; 20.00128426548489
6518554; 13916015; 100390625; -12207031; -30517578; -24414062; 5800000000; 3000000000; 1100000000; 6265012359;0; 0; 0; 5009053260; 2000125030; 50.09059499946598; 20.00128426548489
6494140; 13891601; 100402832; -12207031; -24414062; -24414062; 5800000000; 3000000000; 1100000000; 6265012359;0; 0; 0; 5009053260; 2000125030; 50.09059499946598; 20.00128426548489
6604003; 13928222; 100354003; -18310546; -24414062; -30517578; 5800000000; 3000000000; 1100000000; 6265012359;0; 0; 0; 5009053240; 2000125100; 50.09059499946598; 20.00128426548489
6555175; 13916015; 100451660; -12207031; -30517578; -24414062; 5800000000; 3000000000; 1100000000; 6265012359;0; 0; 0; 5009053240; 2000125100; 50.09059499946598; 20.00128426548489
6530761; 13903808; 100415039; -6103515; -30517578; -24414062; 5800000000; 3000000000; 1100000000; 6265012359;0; 0; 0; 5009053180; 2000125190; 50.09059499946598; 20.00128426548489
6555175; 13867187; 100439453; -6103515; -30517578; -24414062; 5800000000; 3000000000; 1100000000; 6265012359;0; 0; 0; 5009053180; 2000125190; 50.09059499946598; 20.00128426548489
6481933; 14025878; 100378417; 0; -36621093; -24414062; 5800000000; 3000000000; 1100000000; 6265012359;0; 0; 0; 5009053040; 2000125310; 50.09059499946598; 20.00128426548489
6518554; 13903808; 100402832; -6103515; -30517578; -18310546; 5800000000; 3000000000; 1100000000; 6265012359;0; 0; 0; 5009053040; 2000125310; 50.09059499946598; 20.00128426548489
6542968; 13928222; 100378417; -12207031; -30517578; -24414062; 5800000000; 3000000000; 1100000000; 6265012359;0; 0; 0; 5009052930; 2000125440; 50.09059499946598; 20.00128426548489
6567382; 13916015; 100439453; 0; -30517578; -24414062; 5800000000; 3000000000; 1100000000; 6265012359;0; 0; 0; 5009052930; 2000125440; 50.09059499946598; 20.00128426548489
6591796; 13977050; 100439453; -18310546; -24414062; -24414062; 5800000000; 3000000000; 1100000000; 6265012359;0; 0; 0; 5009052930; 2000125490; 50.09059499946598; 20.00128426548489
6542968; 13916015; 100354003; -12207031; -24414062; -24414062; 5800000000; 3000000000; 1100000000; 6265012359;0; 0; 0; 5009052930; 2000125490; 50.09059499946598; 20.00128426548489
6555175; 13977050; 100439453; -12207031; -24414062; -24414062; 5800000000; 3000000000; 1100000000; 6265012359;0; 0; 0; 5009052900; 2000125599; 50.09059499946598; 20.00128426548489
6652832; 13891601; 100366210; 0; -30517578; -24414062; 5800000000; 3000000000; 1100000000; 6265012359;0; 0; 0; 5009052900; 2000125599; 50.09059499946598; 20.00128426548489
6567382; 13928222; 100354003; -12207031; -24414062; -24414062; 5800000000; 3000000000; 1200000000; 6265012359;0; 0; 0; 5009052990; 2000125569; 50.09059499946598; 20.00128426548489
6555175; 13854980; 100451660; -12207031; -30517578; -24414062; 5800000000; 3000000000; 1100000000; 6265012359;0; 0; 0; 5009052990; 2000125569; 50.09059499946598; 20.00128426548489
6591796; 13940429; 100427246; -18310546; -24414062; -24414062; 5800000000; 3000000000; 1100000000; 6265012359;0; 0; 0; 5009052980; 2000125659; 50.09059499946598; 20.00128426548489
6506347; 13867187; 100378417; -12207031; -30517578; -24414062; 5800000000; 3000000000; 1100000000; 6265012359;0; 0; 0; 5009052980; 2000125659; 50.09059499946598; 20.00128426548489
6567382; 14001464; 100390625; -18310546; -24414062; -30517578; 5800000000; 3000000000; 1100000000; 6265012359;0; 0; 0; 5009052990; 2000125700; 50.09059499946598; 20.00128426548489
6555175; 13891601; 100439453; -12207031; -30517578; -24414062; 5800000000; 3000000000; 1100000000; 6265012359;0; 0; 0; 5009052990; 2000125700; 50.09059499946598; 20.00128426548489
6518554; 13964843; 100378417; -12207031; -30517578; -24414062; 5800000000; 3000000000; 1100000000; 6265012359;0; 0; 0; 5009052920; 2000125800; 50.09059499946598; 20.00128426548489
6567382; 14013671; 100463867; -6103515; -30517578; -24414062; 5800000000; 3000000000; 1100000000; 6265012359;0; 0; 0; 5009052920; 2000125800; 50.09059499946598; 20.00128426548489
6567382; 13940429; 100366210; -12207031; -30517578; -24414062; 5800000000; 3000000000; 1100000000; 6265012359;0; 0; 0; 5009052840; 2000125939; 50.09059499946598; 20.00128426548489
6506347; 13964843; 100476074; -12207031; -24414062; -24414062; 5800000000; 3000000000; 1100000000; 6265012359;0; 0; 0; 5009052840; 2000125939; 50.09059499946598; 20.00128426548489
6481933; 13903808; 100427246; -12207031; -24414062; -24414062; 5800000000; 3000000000; 1100000000; 6265012359;0; 0; 0; 5009052750; 2000126119; 50.09059499946598; 20.00128426548489
6542968; 13916015; 100451660; -12207031; -24414062; -24414062; 5800000000; 3000000000; 1100000000; 6265012359;0; 0; 0; 5009052750; 2000126119; 50.09059499946598; 20.00128426548489
6518554; 13903808; 100476074; -6103515; -30517578; -24414062; 5800000000; 3000000000; 1100000000; 6265012359;0; 0; 0; 5009052730; 2000126209; 50.09059499946598; 20.00128426548489
6481933; 13891601; 100402832; -12207031; -24414062; -24414062; 5800000000; 3000000000; 1100000000; 6265012359;0; 0; 0; 5009052730; 2000126209; 50.09059499946598; 20.00128426548489
6518554; 13989257; 100439453; 0; -30517578; -24414062; 5800000000; 3000000000; 1000000000; 6265012359;0; 0; 0; 5009052699; 2000126299; 50.09059499946598; 20.00128426548489
6640625; 14001464; 100341796; -6103515; -24414062; -24414062; 5800000000; 3000000000; 1100000000; 6265012359;0; 0; 0; 5009052699; 2000126299; 50.09059499946598; 20.00128426548489
6555175; 13854980; 100439453; -12207031; -24414062; -24414062; 5800000000; 3000000000; 1100000000; 6265012359;0; 0; 0; 5009052620; 2000126470; 50.09059499946598; 20.00128426548489
6604003; 13891601; 100427246; -6103515; -24414062; -24414062; 5800000000; 3000000000; 1000000000; 6265012359;0; 0; 0; 5009052620; 2000126470; 50.09059499946598; 20.00128426548489
6481933; 13928222; 100463867; -6103515; -30517578; -24414062; 5800000000; 3000000000; 1100000000; 6265012359;0; 0; 0; 5009052550; 2000126620; 50.09059499946598; 20.00128426548489
6481933; 13879394; 100378417; -12207031; -24414062; -24414062; 5800000000; 3000000000; 1100000000; 6265012359;0; 0; 0; 5009052550; 2000126620; 50.09059499946598; 20.00128426548489
6542968; 13928222; 100402832; -12207031; -24414062; -24414062; 5800000000; 3000000000; 1100000000; 6265012359;0; 0; 0; 5009052540; 2000126689; 50.09059499946598; 20.00128426548489
6518554; 13879394; 100390625; -12207031; -30517578; -24414062; 5800000000; 3000000000; 1100000000; 6265012359;0; 0; 0; 5009052540; 2000126689; 50.09059499946598; 20.00128426548489
6628417; 13977050; 100415039; -12207031; -30517578; -24414062; 5800000000; 3000000000; 1100000000; 6265012359;0; 0; 0; 5009052510; 2000126770; 50.09059499946598; 20.00128426548489
6555175; 13891601; 100402832; -6103515; -30517578; -24414062; 5800000000; 3000000000; 1200000000; 6265012359;0; 0; 0; 5009052510; 2000126770; 50.09059499946598; 20.00128426548489
6542968; 13952636; 100439453; -18310546; -24414062; -24414062; 5800000000; 3000000000; 1100000000; 6265012359;0; 0; 0; 5009052420; 2000126920; 50.09059499946598; 20.00128426548489
6652832; 13964843; 100280761; -12207031; -18310546; -24414062; 5800000000; 3000000000; 1100000000; 6265012359;0; 0; 0; 5009052420; 2000126920; 50.09059499946598; 20.00128426548489
6616210; 13806152; 100415039; -18310546; -24414062; -24414062; 5800000000; 3000000000; 1100000000; 6265012359;0; 0; 0; 5009052350; 2000127050; 50.09059499946598; 20.00128426548489
6640625; 13793945; 100390625; -12207031; -18310546; -24414062; 5800000000; 3000000000; 1100000000; 6265012359;0; 0; 0; 5009052350; 2000127050; 50.09059499946598; 20.00128426548489
6591796; 13879394; 100354003; -12207031; -18310546; -18310546; 5800000000; 3000000000; 1100000000; 6265012359;0; 0; 0; 5009052279; 2000127190; 50.090536104214586; 20.001372438469996
6445312; 13928222; 100451660; -12207031; -24414062; -24414062; 5800000000; 3000000000; 1100000000; 6265012359;0; 0; 0; 5009052279; 2000127190; 50.090536104214586; 20.001372438469996
6481933; 13928222; 100500488; -6103515; -30517578; -24414062; 5800000000; 3000000000; 1100000000; 6265012359;0; 0; 0; 5009052219; 2000127350; 50.090536104214586; 20.001372438469996
7580566; 15820312; 101513671; -30517578; -158691406; -54931640; 5800000000; 3000000000; 1100000000; 6265012359;0; 0; 0; 5009052219; 2000127350; 50.090536104214586; 20.001372438469996
4089355; 17138671; 103308105; -48828125; -238037109; -42724609; 5800000000; 3000000000; 1100000000; 6265012359;0; 0; 0; 5009052200; 2000127470; 50.090536104214586; 20.001372438469996
6445312; 13415527; 99938964; 36621093; -6103515; -24414062; 5800000000; 3000000000; 1100000000; 6265012359;0; 0; 0; 5009052200; 2000127470; 50.090536104214586; 20.001372438469996
6665039; 13720703; 100366210; 42724609; -18310546; -30517578; 5800000000; 3000000000; 1100000000; 6265012359;0; 0; 0; 5009052190; 2000127590; 50.090536104214586; 20.001372438469996
7067871; 14196777; 100939941; -48828125; -79345703; -24414062; 5800000000; 3000000000; 1100000000; 6265012359;0; 0; 0; 5009052190; 2000127590; 50.090545677598534; 20.001377437092366
5993652; 14550781; 101318359; -85449218; -85449218; -24414062; 5800000000; 3000000000; 1100000000; 6265012359;0; 0; 0; 5009052150; 2000127750; 50.090545677598534; 20.001377437092366
-1501464; 10461425; 97753906; 439453125; 48828125; -238037109; 5800000000; 3100000000; 1100000000; 6187626266;0; 0; 0; 5009052150; 2000127750; 50.0905585318194; 20.001364250831212
13952636; 19104003; 106298828; -24414062; -830078125; -54931640; 5800000000; 3000000000; 1100000000; 6265012359;0; 0; 0; 5009052080; 2000127870; 50.0905585318194; 20.001364250831212
7043457; 13891601; 99682617; -36621093; 91552734; -18310546; 5800000000; 3000000000; 1100000000; 6265012359;0; 0; 0; 5009052080; 2000127870; 50.0905585318194; 20.001364250831212
7788085; 13940429; 100280761; 12207031; -30517578; -36621093; 5800000000; 3000000000; 1100000000; 6265012359;0; 0; 0; 5009052060; 2000127980; 50.0905585318194; 20.001364250831212
6652832; 13659667; 100244140; 6103515; 79345703; -18310546; 5800000000; 3000000000; 1200000000; 6265012359;0; 0; 0; 5009052060; 2000127980; 50.0905585318194; 20.001364250831212
7922363; 13574218; 100073242; 0; 42724609; -18310546; 5800000000; 3000000000; 1100000000; 6265012359;0; 0; 0; 5009052040; 2000128089; 50.0905585318194; 20.001364250831212
6945800; 14306640; 100305175; -6103515; -61035156; -30517578; 5800000000; 3000000000; 1100000000; 6265012359;0; 0; 0; 5009052040; 2000128089; 50.0905585318194; 20.001364250831212
6530761; 13977050; 99938964; -18310546; -24414062; -18310546; 5800000000; 3000000000; 1100000000; 6265012359;0; 0; 0; 5009052060; 2000128159; 50.0905585318194; 20.001364250831212
6188964; 14270019; 100952148; -18310546; -67138671; -30517578; 5800000000; 3000000000; 1100000000; 6265012359;0; 0; 0; 5009052060; 2000128159; 50.09056865564373; 20.001372340956333
5859375; 14208984; 100585937; -24414062; -12207031; -18310546; 5800000000; 3000000000; 1100000000; 6265012359;0; 0; 0; 5009052040; 2000128189; 50.09056865564373; 20.001372340956333
6616210; 13928222; 100598144; -6103515; -30517578; -24414062; 5800000000; 3000000000; 1100000000; 6265012359;0; 0; 0; 5009052040; 2000128189; 50.09056865564373; 20.001372340956333
6323242; 13793945; 100512695; -6103515; -36621093; -24414062; 5800000000; 3000000000; 1100000000; 6265012359;0; 0; 0; 5009052070; 2000128189; 50.09056865564373; 20.001372340956333
3149414; 14208984; 98242187; 207519531; 250244140; -109863281; 5800000000; 3100000000; 1100000000; 6187626266;0; 0; 0; 5009052070; 2000128189; 50.09056865564373; 20.001372340956333
12768554; 15393066; 101599121; 18310546; -91552734; -36621093; 5800000000; 3000000000; 1100000000; 6265012359;0; 0; 0; 5009052060; 2000128309; 50.09056865564373; 20.001372340956333
7055664; 14355468; 100317382; -36621093; 18310546; -24414062; 5800000000; 3000000000; 1100000000; 6265012359;0; 0; 0; 5009052060; 2000128309; 50.09056865564373; 20.001372340956333
7495117; 14306640; 100109863; -42724609; 48828125; -18310546; 5700000000; 3000000000; 1100000000; 6224145889;0; 0; 0; 5009052120; 2000128260; 50.09056865564373; 20.001372340956333
8288574; 14465332; 100292968; -30517578; 18310546; -6103515; 5800000000; 3000000000; 1100000000; 6265012359;0; 0; 0; 5009052120; 2000128260; 50.09056865564373; 20.001372340956333
7653808; 14331054; 100415039; 24414062; -67138671; -30517578; 5800000000; 3000000000; 1000000000; 6265012359;0; 0; 0; 5009052170; 2000128189; 50.09056865564373; 20.001372340956333
7043457; 14147949; 100524902; -12207031; -36621093; -18310546; 5800000000; 3000000000; 1100000000; 6265012359;0; 0; 0; 5009052170; 2000128189; 50.090564473706806; 20.001389630376345
6604003; 13684082; 100097656; 6103515; -48828125; -24414062; 5800000000; 3000000000; 1100000000; 6265012359;0; 0; 0; 5009052240; 2000128140; 50.090564473706806; 20.001389630376345
6420898; 13793945; 100659179; 6103515; -73242187; -30517578; 5800000000; 3000000000; 1100000000; 6265012359;0; 0; 0; 5009052240; 2000128140; 50.0905612373765; 20.001407469934065
5151367; 13659667; 100524902; -6103515; -12207031; -30517578; 5800000000; 3000000000; 1100000000; 6265012359;0; 0; 0; 5009052350; 2000128029; 50.0905612373765; 20.001407469934065
5187988; 14807128; 101098632; -54931640; -91552734; -36621093; 5800000000; 3000000000; 1100000000; 6265012359;0; 0; 0; 5009052350; 2000128029; 50.0905612373765; 20.001407469934065
6787109; 15783691; 101660156; -67138671; -61035156; -12207031; 5800000000; 3000000000; 1100000000; 6187626266;0; 0; 0; 5009052480; 2000127900; 50.0905612373765; 20.001407469934065
6384277; 14038085; 100463867; 6103515; -30517578; -24414062; 5800000000; 3000000000; 1100000000; 6265012359;0; 0; 0; 5009052480; 2000127900; 50.09057091859982; 20.001409322690286
6481933; 14257812; 100573730; 6103515; -30517578; -30517578; 5800000000; 3000000000; 1100000000; 6265012359;0; 0; 0; 5009052560; 2000127810; 50.09057091859982; 20.001409322690286
6542968; 13952636; 100305175; 0; -24414062; -30517578; 5800000000; 3000000000; 1000000000; 6265012359;0; 0; 0; 5009052560; 2000127810; 50.090575847178364; 20.00139125893388
6518554; 13989257; 100439453; -12207031; -24414062; -24414062; 5800000000; 3000000000; 1100000000; 6265012359;0; 0; 0; 5009052720; 2000127669; 50.090575847178364; 20.00139125893388
6481933; 13928222; 100451660; -12207031; -24414062; -24414062; 5800000000; 3000000000; 1100000000; 6265012359;0; 0; 0; 5009052720; 2000127669; 50.090575847178364; 20.00139125893388
6506347; 13964843; 100451660; -18310546; -24414062; -24414062; 5800000000; 3000000000; 1100000000; 6265012359;0; 0; 0; 5009052810; 2000127600; 50.090575847178364; 20.00139125893388
6530761; 13928222; 100378417; -6103515; -30517578; -24414062; 5800000000; 3000000000; 1100000000; 6265012359;0; 0; 0; 5009052810; 2000127600; 50.090575847178364; 20.00139125893388
6494140; 13964843; 100402832; -12207031; -30517578; -24414062; 5800000000; 3000000000; 1100000000; 6265012359;0; 0; 0; 5009052860; 2000127510; 50.090575847178364; 20.00139125893388
6494140; 13977050; 100451660; -12207031; -24414062; -24414062; 5800000000; 3000000000; 1100000000; 6265012359;0; 0; 0; 5009052860; 2000127510; 50.090575847178364; 20.00139125893388
6457519; 13879394; 100402832; -12207031; -24414062; -24414062; 5800000000; 3000000000; 1100000000; 6265012359;0; 0; 0; 5009052940; 2000127369; 50.090575847178364; 20.00139125893388
6518554; 13854980; 100378417; -12207031; -30517578; -24414062; 5800000000; 3000000000; 1100000000; 6265012359;0; 0; 0; 5009052940; 2000127369; 50.090575847178364; 20.00139125893388
6457519; 13903808; 100402832; -12207031; -30517578; -24414062; 5800000000; 3000000000; 1100000000; 6265012359;0; 0; 0; 5009053170; 2000127020; 50.090575847178364; 20.00139125893388
6469726; 13964843; 100390625; -12207031; -24414062; -30517578; 5800000000; 2900000000; 1100000000; 6343495178;0; 0; 0; 5009053170; 2000127020; 50.090575847178364; 20.00139125893388
6518554; 14062500; 100402832; -12207031; -30517578; -24414062; 5800000000; 3000000000; 1100000000; 6265012359;0; 0; 0; 5009053280; 2000126870; 50.090575847178364; 20.00139125893388
6567382; 14013671; 100451660; -12207031; -30517578; -24414062; 5800000000; 3000000000; 1100000000; 6265012359;0; 0; 0; 5009053280; 2000126870; 50.090575847178364; 20.00139125893388
6567382; 13977050; 100476074; -12207031; -30517578; -24414062; 5800000000; 3000000000; 1100000000; 6265012359;0; 0; 0; 5009053210; 2000126860; 50.090575847178364; 20.00139125893388
6433105; 13952636; 100390625; -12207031; -24414062; -24414062; 5800000000; 3000000000; 1100000000; 6265012359;0; 0; 0; 5009053210; 2000126860; 50.090575847178364; 20.00139125893388
6445312; 13891601; 100463867; -6103515; -30517578; -24414062; 5700000000; 3000000000; 1200000000; 6224145889;0; 0; 0; 5009053189; 2000126830; 50.090575847178364; 20.00139125893388
6494140; 13867187; 100512695; -12207031; -24414062; -24414062; 5800000000; 3000000000; 1100000000; 6265012359;0; 0; 0; 5009053189; 2000126830; 50.090575847178364; 20.00139125893388
6555175; 13952636; 100354003; -12207031; -24414062; -24414062; 5800000000; 3000000000; 1100000000; 6265012359;0; 0; 0; 5009053080; 2000126879; 50.090575847178364; 20.00139125893388
6542968; 13952636; 100463867; -6103515; -30517578; -24414062; 5800000000; 3000000000; 1100000000; 6265012359;0; 0; 0; 5009053080; 2000126879; 50.090575847178364; 20.00139125893388
6420898; 13916015; 100415039; -18310546; -24414062; -24414062; 5800000000; 3000000000; 1100000000; 6265012359;0; 0; 0; 5009053100; 2000126789; 50.090575847178364; 20.00139125893388
6518554; 14001464; 100439453; -6103515; -30517578; -24414062; 5800000000; 3000000000; 1100000000; 6265012359;0; 0; 0; 5009053100; 2000126789; 50.090575847178364; 20.00139125893388
6530761; 14062500; 100402832; -12207031; -30517578; -30517578; 5800000000; 3000000000; 1100000000; 6265012359;0; 0; 0; 5009053110; 2000126710; 50.090575847178364; 20.00139125893388
6530761; 13940429; 100415039; -12207031; -30517578; -24414062; 5800000000; 3000000000; 1200000000; 6265012359;0; 0; 0; 5009053110; 2000126710; 50.090575847178364; 20.00139125893388
6420898; 14001464; 100463867; -6103515; -30517578; -24414062; 5800000000; 3000000000; 1100000000; 6265012359;0; 0; 0; 5009053069; 2000126659; 50.090575847178364; 20.00139125893388
6555175; 13903808; 100402832; -12207031; -24414062; -24414062; 5800000000; 3000000000; 1200000000; 6265012359;0; 0; 0; 5009053069; 2000126659; 50.090575847178364; 20.00139125893388
6506347; 13964843; 100451660; -12207031; -30517578; -24414062; 5800000000; 3000000000; 1100000000; 6265012359;0; 0; 0; 5009052980; 2000126659; 50.090575847178364; 20.00139125893388
6518554; 13891601; 100427246; -12207031; -30517578; -24414062; 5800000000; 3000000000; 1100000000; 6265012359;0; 0; 0; 5009052980; 2000126659; 50.090575847178364; 20.00139125893388
6481933; 13830566; 100476074; -12207031; -30517578; -24414062; 5800000000; 3000000000; 1100000000; 6265012359;0; 0; 0; 5009052879; 2000126680; 50.090575847178364; 20.00139125893388
6506347; 13952636; 100427246; -6103515; -24414062; -24414062; 5800000000; 3000000000; 1100000000; 6265012359;0; 0; 0; 5009052879; 2000126680; 50.090575847178364; 20.00139125893388
6506347; 13903808; 100439453; -6103515; -30517578; -24414062; 5800000000; 3000000000; 1100000000; 6265012359;0; 0; 0; 5009052830; 2000126609; 50.090575847178364; 20.00139125893388
6384277; 13928222; 100427246; -12207031; -24414062; -24414062; 5800000000; 3000000000; 1100000000; 6265012359;0; 0; 0; 5009052830; 2000126609; 50.090575847178364; 20.00139125893388
6469726; 13916015; 100451660; -18310546; -24414062; -24414062; 5800000000; 3000000000; 1100000000; 6265012359;0; 0; 0; 5009052830; 2000126550; 50.090575847178364; 20.00139125893388
6567382; 13977050; 100463867; -12207031; -24414062; -24414062; 5800000000; 3000000000; 1100000000; 6265012359;0; 0; 0; 5009052830; 2000126550; 50.090575847178364; 20.00139125893388
6481933; 13891601; 100427246; -6103515; -24414062; -24414062; 5800000000; 3000000000; 1100000000; 6265012359;0; 0; 0; 5009052800; 2000126520; 50.090575847178364; 20.00139125893388
6555175; 13916015; 100451660; -12207031; -30517578; -30517578; 5800000000; 3000000000; 1100000000; 6265012359;0; 0; 0; 5009052800; 2000126520; 50.090575847178364; 20.00139125893388
6506347; 13940429; 100415039; -12207031; -24414062; -24414062; 5800000000; 3000000000; 1100000000; 6265012359;0; 0; 0; 5009052770; 2000126449; 50.090575847178364; 20.00139125893388
6542968; 13903808; 100402832; -12207031; -24414062; -30517578; 5800000000; 3000000000; 1100000000; 6265012359;0; 0; 0; 5009052770; 2000126449; 50.090575847178364; 20.00139125893388
6567382; 13891601; 100524902; -6103515; -30517578; -24414062; 5800000000; 3000000000; 1100000000; 6265012359;0; 0; 0; 5009052759; 2000126400; 50.090575847178364; 20.00139125893388
6481933; 13964843; 100463867; -6103515; -30517578; -24414062; 5800000000; 3000000000; 1100000000; 6265012359;0; 0; 0; 5009052759; 2000126400; 50.090575847178364; 20.00139125893388
6506347; 14086914; 100488281; -12207031; -30517578; -24414062; 5800000000; 3000000000; 1100000000; 6265012359;0; 0; 0; 5009052710; 2000126389; 50.090575847178364; 20.00139125893388
6530761; 13916015; 100439453; -6103515; -24414062; -24414062; 5800000000; 3000000000; 1100000000; 6265012359;0; 0; 0; 5009052710; 2000126389; 50.090556181887955; 20.001355593224122
6494140; 13940429; 100390625; -6103515; -30517578; -24414062; 5800000000; 3000000000; 1100000000; 6265012359;0; 0; 0; 5009052770; 2000126280; 50.090556181887955; 20.001355593224122
6506347; 13903808; 100500488; -6103515; -30517578; -24414062; 5800000000; 3000000000; 1100000000; 6265012359;0; 0; 0; 5009052770; 2000126280; 50.090556181887955; 20.001355593224122
6567382; 13916015; 100402832; -18310546; -24414062; -24414062; 5800000000; 3000000000; 1100000000; 6265012359;0; 0; 0; 5009052810; 2000126179; 50.090556181887955; 20.001355593224122
6433105; 13989257; 100439453; 0; -30517578; -24414062; 5800000000; 3000000000; 1100000000; 6265012359;0; 0; 0; 5009052810; 2000126179; 50.090556181887955; 20.001355593224122
6555175; 13916015; 100476074; -12207031; -24414062; -24414062; 5800000000; 3000000000; 1100000000; 6265012359;0; 0; 0; 5009052830; 2000126100; 50.090556181887955; 20.001355593224122
6542968; 13952636; 100427246; -6103515; -24414062; -24414062; 5800000000; 3000000000; 1100000000; 6343495178;0; 0; 0; 5009052830; 2000126100; 50.090556181887955; 20.001355593224122
6530761; 13928222; 100439453; -12207031; -24414062; -24414062; 5800000000; 3000000000; 1100000000; 6265012359;0; 0; 0; 5009052840; 2000126010; 50.090556181887955; 20.001355593224122
6579589; 13964843; 100463867; -12207031; -24414062; -24414062; 5800000000; 3000000000; 1100000000; 6265012359;0; 0; 0; 5009052840; 2000126010; 50.090556181887955; 20.001355593224122
6591796; 13940429; 100378417; 0; -30517578; -24414062; 5800000000; 3000000000; 1100000000; 6265012359;0; 0; 0; 5009052890; 2000125899; 50.090556181887955; 20.001355593224122
6567382; 13891601; 100427246; -6103515; -24414062; -24414062; 5800000000; 3000000000; 1100000000; 6265012359;0; 0; 0; 5009052890; 2000125899; 50.090556181887955; 20.001355593224122
6518554; 13977050; 100415039; -6103515; -30517578; -24414062; 5800000000; 3000000000; 1200000000; 6265012359;0; 0; 0; 5009052870; 2000125860; 50.090556181887955; 20.001355593224122
6408691; 13928222; 100463867; -12207031; -30517578; -24414062; 5800000000; 3000000000; 1100000000; 6265012359;0; 0; 0; 5009052870; 2000125860; 50.090556181887955; 20.001355593224122
6481933; 13977050; 100390625; -12207031; -30517578; -24414062; 5800000000; 3000000000; 1100000000; 6265012359;0; 0; 0; 5009052819; 2000125819; 50.090556181887955; 20.001355593224122
6420898; 13928222; 100476074; -6103515; -30517578; -24414062; 5800000000; 3000000000; 1100000000; 6265012359;0; 0; 0; 5009052819; 2000125819; 50.090556181887955; 20.001355593224122
6542968; 13903808; 100463867; -18310546; -24414062; -24414062; 5800000000; 3000000000; 1100000000; 6265012359;0; 0; 0; 5009052790; 2000125839; 50.090556181887955; 20.001355593224122
6445312; 13867187; 100415039; -12207031; -24414062; -24414062; 5800000000; 3000000000; 1100000000; 6265012359;0; 0; 0; 5009052790; 2000125839; 50.090556181887955; 20.001355593224122
6457519; 13928222; 100439453; -12207031; -24414062; -24414062; 5800000000; 3000000000; 1100000000; 6265012359;0; 0; 0; 5009052780; 2000125790; 50.090556181887955; 20.001355593224122
6469726; 13903808; 100451660; -12207031; -24414062; -24414062; 5800000000; 3000000000; 1100000000; 6265012359;0; 0; 0; 5009052780; 2000125790; 50.090556181887955; 20.001355593224122
6518554; 13964843; 100476074; -12207031; -24414062; -24414062; 5800000000; 3000000000; 1100000000; 6265012359;0; 0; 0; 5009052770; 2000125770; 50.090556181887955; 20.001355593224122
6457519; 13940429; 100463867; -6103515; -30517578; -24414062; 5800000000; 3000000000; 1100000000; 6265012359;0; 0; 0; 5009052770; 2000125770; 50.090556181887955; 20.001355593224122
6555175; 13903808; 100415039; -12207031; -30517578; -30517578; 5800000000; 3000000000; 1100000000; 6265012359;0; 0; 0; 5009052720; 2000125819; 50.090556181887955; 20.001355593224122
6396484; 13891601; 100537109; -6103515; -24414062; -24414062; 5800000000; 3000000000; 1100000000; 6265012359;0; 0; 0; 5009052720; 2000125819; 50.090556181887955; 20.001355593224122
6396484; 13977050; 100463867; -6103515; -30517578; -24414062; 5800000000; 3000000000; 1100000000; 6265012359;0; 0; 0; 5009052670; 2000125909; 50.090556181887955; 20.001355593224122
6530761; 13952636; 100390625; -12207031; -24414062; -24414062; 5800000000; 3000000000; 1000000000; 6265012359;0; 0; 0; 5009052670; 2000125909; 50.090556181887955; 20.001355593224122
6542968; 13952636; 100451660; -12207031; -24414062; -24414062; 5800000000; 3000000000; 1100000000; 6265012359;0; 0; 0; 5009052680; 2000125839; 50.090556181887955; 20.001355593224122
6469726; 13952636; 100415039; -12207031; -30517578; -24414062; 5800000000; 3000000000; 1100000000; 6265012359;0; 0; 0; 5009052680; 2000125839; 50.090556181887955; 20.001355593224122
6481933; 13916015; 100512695; -6103515; -24414062; -24414062; 5800000000; 3000000000; 1100000000; 6265012359;0; 0; 0; 5009052660; 2000125899; 50.090556181887955; 20.001355593224122
6457519; 14001464; 100415039; -6103515; -24414062; -24414062; 5800000000; 3000000000; 1100000000; 6265012359;0; 0; 0; 5009052660; 2000125899; 50.090556181887955; 20.001355593224122
6469726; 13964843; 100451660; -12207031; -24414062; -24414062; 5800000000; 3000000000; 1100000000; 6265012359;0; 0; 0; 5009052600; 2000125959; 50.090556181887955; 20.001355593224122
6481933; 13867187; 100439453; -12207031; -30517578; -24414062; 5800000000; 3000000000; 1100000000; 6265012359;0; 0; 0; 5009052600; 2000125959; 50.090556181887955; 20.001355593224122
6494140; 13989257; 100512695; -18310546; -24414062; -24414062; 5800000000; 3000000000; 1100000000; 6265012359;0; 0; 0; 5009052560; 2000125999; 50.090556181887955; 20.001355593224122
6555175; 14013671; 100378417; -12207031; -30517578; -24414062; 5800000000; 3000000000; 1100000000; 6265012359;0; 0; 0; 5009052560; 2000125999; 50.090556181887955; 20.001355593224122
6567382; 14001464; 100402832; -18310546; -24414062; -24414062; 5800000000; 3000000000; 1000000000; 6265012359;0; 0; 0; 5009052530; 2000126020; 50.090556181887955; 20.001355593224122
6384277; 13867187; 100463867; -6103515; -30517578; -24414062; 5800000000; 3000000000; 1100000000; 6265012359;0; 0; 0; 5009052530; 2000126020; 50.090556181887955; 20.001355593224122
6481933; 13989257; 100488281; 6103515; -36621093; -24414062; 5800000000; 3000000000; 1100000000; 6265012359;0; 0; 0; 5009052470; 2000126119; 50.090556181887955; 20.001355593224122
6481933; 13916015; 100488281; -6103515; -30517578; -24414062; 5800000000; 3000000000; 1100000000; 6265012359;0; 0; 0; 5009052470; 2000126119; 50.090556181887955; 20.001355593224122
6481933; 13903808; 100451660; -6103515; -30517578; -24414062; 5800000000; 3100000000; 1100000000; 6187626266;0; 0; 0; 5009052440; 2000126140; 50.090556181887955; 20.001355593224122
6518554; 14001464; 100402832; -12207031; -30517578; -24414062; 5800000000; 3000000000; 1100000000; 6265012359;0; 0; 0; 5009052440; 2000126140; 50.090556181887955; 20.001355593224122
6567382; 13916015; 100439453; -18310546; -24414062; -24414062; 5800000000; 3000000000; 1100000000; 6265012359;0; 0; 0; 5009052410; 2000126220; 50.090556181887955; 20.001355593224122
6481933; 13952636; 100402832; -6103515; -30517578; -24414062; 5800000000; 3000000000; 1100000000; 6265012359;0; 0; 0; 5009052410; 2000126220; 50.090556181887955; 20.001355593224122
6396484; 13989257; 100537109; -6103515; -30517578; -24414062; 5800000000; 3000000000; 1100000000; 6265012359;0; 0; 0; 5009052410; 2000126239; 50.090556181887955; 20.001355593224122
6481933; 13867187; 100439453; -12207031; -24414062; -24414062; 5800000000; 3000000000; 1100000000; 6265012359;0; 0; 0; 5009052410; 2000126239; 50.090556181887955; 20.001355593224122
6494140; 13977050; 100488281; -12207031; -30517578; -30517578; 5800000000; 3000000000; 1100000000; 6265012359;0; 0; 0; 5009052370; 2000126340; 50.090556181887955; 20.001355593224122
6481933; 13928222; 100451660; -12207031; -24414062; -24414062; 5800000000; 3000000000; 1200000000; 6265012359;0; 0; 0; 5009052370; 2000126340; 50.090556181887955; 20.001355593224122
6518554; 13916015; 100390625; -12207031; -24414062; -24414062; 5800000000; 3000000000; 1100000000; 6265012359;0; 0; 0; 5009052390; 2000126370; 50.090556181887955; 20.001355593224122
6445312; 13903808; 100451660; -6103515; -24414062; -24414062; 5800000000; 3000000000; 1100000000; 6265012359;0; 0; 0; 5009052390; 2000126370; 50.090556181887955; 20.001355593224122
6494140; 13842773; 100439453; -12207031; -30517578; -30517578; 5800000000; 3000000000; 1000000000; 6265012359;0; 0; 0; 5009052440; 2000126380; 50.090556181887955; 20.001355593224122
6481933; 13891601; 100500488; -12207031; -30517578; -24414062; 5800000000; 3000000000; 1100000000; 6265012359;0; 0; 0; 5009052440; 2000126380; 50.090556181887955; 20.001355593224122
6396484; 13879394; 100463867; -12207031; -30517578; -24414062; 5800000000; 3000000000; 1100000000; 6265012359;0; 0; 0; 5009052470; 2000126370; 50.090556181887955; 20.001355593224122
6506347; 13928222; 100500488; -12207031; -24414062; -30517578; 5800000000; 3000000000; 1000000000; 6265012359;0; 0; 0; 5009052470; 2000126370; 50.090556181887955; 20.001355593224122
6555175; 14025878; 100390625; -12207031; -24414062; -24414062; 5800000000; 3000000000; 1100000000; 6265012359;0; 0; 0; 5009052510; 2000126329; 50.090556181887955; 20.001355593224122
6445312; 13940429; 100402832; -12207031; -30517578; -24414062; 5800000000; 3000000000; 1100000000; 6265012359;0; 0; 0; 5009052510; 2000126329; 50.090556181887955; 20.001355593224122
6359863; 13964843; 100415039; -6103515; -24414062; -24414062; 5800000000; 3000000000; 1100000000; 6265012359;0; 0; 0; 5009052459; 2000126350; 50.090556181887955; 20.001355593224122
6494140; 13952636; 100476074; -6103515; -36621093; -24414062; 5800000000; 3000000000; 1100000000; 6265012359;0; 0; 0; 5009052459; 2000126350; 50.090556181887955; 20.001355593224122
6506347; 13903808; 100512695; -6103515; -36621093; -24414062; 5800000000; 3000000000; 1100000000; 6265012359;0; 0; 0; 5009052530; 2000126250; 50.090556181887955; 20.001355593224122
6457519; 13891601; 100500488; -12207031; -24414062; -30517578; 5800000000; 3000000000; 1100000000; 6265012359;0; 0; 0; 5009052530; 2000126250; 50.090556181887955; 20.001355593224122
6555175; 13952636; 100488281; -6103515; -24414062; -24414062; 5800000000; 3000000000; 1000000000; 6265012359;0; 0; 0; 5009052579; 2000126179; 50.090556181887955; 20.001355593224122
6530761; 13940429; 100415039; -12207031; -30517578; -30517578; 5800000000; 3000000000; 1100000000; 6265012359;0; 0; 0; 5009052579; 2000126179; 50.090556181887955; 20.001355593224122
6433105; 13818359; 100402832; -12207031; -30517578; -24414062; 5800000000; 3000000000; 1100000000; 6265012359;0; 0; 0; 5009052610; 2000126119; 50.090556181887955; 20.001355593224122
6518554; 13964843; 100427246; -12207031; -30517578; -24414062; 5800000000; 3000000000; 1100000000; 6265012359;0; 0; 0; 5009052610; 2000126119; 50.090556181887955; 20.001355593224122
6530761; 13952636; 100451660; -6103515; -30517578; -24414062; 5800000000; 3000000000; 1100000000; 6265012359;0; 0; 0; 5009052670; 2000126050; 50.090556181887955; 20.001355593224122
6555175; 13903808; 100415039; -12207031; -24414062; -24414062; 5800000000; 3000000000; 1100000000; 6265012359;0; 0; 0; 5009052670; 2000126050; 50.090556181887955; 20.001355593224122
6591796; 14013671; 100439453; 0; -36621093; -24414062; 5800000000; 3000000000; 1100000000; 6265012359;0; 0; 0; 5009052730; 2000125959; 50.090556181887955; 20.001355593224122
6506347; 13928222; 100549316; 0; -36621093; -24414062; 5800000000; 3000000000; 1100000000; 6265012359;0; 0; 0; 5009052730; 2000125959; 50.090556181887955; 20.001355593224122
6433105; 13916015; 100427246; -12207031; -30517578; -24414062; 5800000000; 3000000000; 1200000000; 6265012359;0; 0; 0; 5009052750; 2000125899; 50.090556181887955; 20.001355593224122
6469726; 13952636; 100488281; -12207031; -30517578; -30517578; 5800000000; 3000000000; 1100000000; 6265012359;0; 0; 0; 5009052750; 2000125899; 50.090556181887955; 20.001355593224122
6457519; 13964843; 100439453; -6103515; -30517578; -30517578; 5800000000; 3000000000; 1000000000; 6265012359;0; 0; 0; 5009052780; 2000125809; 50.090556181887955; 20.001355593224122
6481933; 13940429; 100476074; 0; -36621093; -30517578; 5800000000; 3000000000; 1100000000; 6265012359;0; 0; 0; 5009052780; 2000125809; 50.090556181887955; 20.001355593224122
6530761; 13977050; 100463867; -12207031; -30517578; -24414062; 5900000000; 3000000000; 1100000000; 6304782104;0; 0; 0; 5009052879; 2000125640; 50.090556181887955; 20.001355593224122
6457519; 13989257; 100402832; -6103515; -30517578; -30517578; 5800000000; 3000000000; 1100000000; 6265012359;0; 0; 0; 5009052879; 2000125640; 50.090556181887955; 20.001355593224122
6481933; 13964843; 100463867; -12207031; -24414062; -24414062; 5700000000; 3000000000; 1100000000; 6224145889;0; 0; 0; 5009052950; 2000125530; 50.090556181887955; 20.001355593224122
6457519; 13940429; 100537109; -12207031; -30517578; -24414062; 5800000000; 3000000000; 1100000000; 6265012359;0; 0; 0; 5009052950; 2000125530; 50.090556181887955; 20.001355593224122
6481933; 13879394; 100500488; -6103515; -30517578; -24414062; 5800000000; 3000000000; 1000000000; 6265012359;0; 0; 0; 5009053020; 2000125430; 50.090556181887955; 20.001355593224122
6494140; 13964843; 100512695; -6103515; -30517578; -24414062; 5800000000; 3000000000; 1100000000; 6265012359;0; 0; 0; 5009053020; 2000125430; 50.090556181887955; 20.001355593224122
6542968; 14025878; 100415039; 0; -30517578; -24414062; 5800000000; 3000000000; 1100000000; 6265012359;0; 0; 0; 5009053120; 2000125299; 50.090556181887955; 20.001355593224122
6555175; 13891601; 100402832; -12207031; -30517578; -24414062; 5800000000; 3000000000; 1100000000; 6265012359;0; 0; 0; 5009053120; 2000125299; 50.090556181887955; 20.001355593224122
6420898; 13952636; 100390625; -12207031; -30517578; -24414062; 5800000000; 3000000000; 1200000000; 6265012359;0; 0; 0; 5009053180; 2000125209; 50.090556181887955; 20.001355593224122
6457519; 13977050; 100476074; -12207031; -30517578; -24414062; 5800000000; 3000000000; 1100000000; 6265012359;0; 0; 0; 5009053180; 2000125209; 50.090556181887955; 20.001355593224122
6542968; 13916015; 100439453; -12207031; -30517578; -24414062; 5800000000; 3000000000; 1100000000; 6265012359;0; 0; 0; 5009053249; 2000125100; 50.090556181887955; 20.001355593224122
6591796; 13903808; 100451660; -12207031; -24414062; -24414062; 5800000000; 3000000000; 1100000000; 6265012359;0; 0; 0; 5009053249; 2000125100; 50.090556181887955; 20.001355593224122
6506347; 13916015; 100439453; -12207031; -30517578; -24414062; 5800000000; 3000000000; 1100000000; 6265012359;0; 0; 0; 5009053380; 2000124940; 50.090556181887955; 20.001355593224122
6518554; 13916015; 100500488; -12207031; -30517578; -24414062; 5800000000; 3000000000; 1100000000; 6265012359;0; 0; 0; 5009053380; 2000124940; 50.090556181887955; 20.001355593224122
6433105; 13952636; 100427246; -12207031; -30517578; -24414062; 5800000000; 3000000000; 1100000000; 6265012359;0; 0; 0; 5009053460; 2000124860; 50.090556181887955; 20.001355593224122
6506347; 13952636; 100451660; -12207031; -30517578; -24414062; 5800000000; 3000000000; 1100000000; 6265012359;0; 0; 0; 5009053460; 2000124860; 50.090556181887955; 20.001355593224122
6518554; 13903808; 100427246; -6103515; -30517578; -24414062; 5800000000; 3000000000; 1100000000; 6265012359;0; 0; 0; 5009053570; 2000124760; 50.090556181887955; 20.001355593224122
6506347; 13952636; 100427246; -12207031; -30517578; -24414062; 5800000000; 3000000000; 1100000000; 6265012359;0; 0; 0; 5009053570; 2000124760; 50.090556181887955; 20.001355593224122
6506347; 13891601; 100524902; -12207031; -24414062; -30517578; 5800000000; 3100000000; 1100000000; 6187626266;0; 0; 0; 5009053549; 2000124809; 50.090556181887955; 20.001355593224122
6494140; 13903808; 100524902; -6103515; -30517578; -24414062; 5800000000; 3000000000; 1100000000; 6265012359;0; 0; 0; 5009053549; 2000124809; 50.090556181887955; 20.001355593224122
6384277; 13928222; 100451660; -6103515; -24414062; -24414062; 5800000000; 3000000000; 1100000000; 6265012359;0; 0; 0; 5009053650; 2000124760; 50.090556181887955; 20.001355593224122
6542968; 13854980; 100439453; -12207031; -30517578; -24414062; 5800000000; 3000000000; 1100000000; 6265012359;0; 0; 0; 5009053650; 2000124760; 50.090556181887955; 20.001355593224122
6542968; 13867187; 100390625; -18310546; -30517578; -24414062; 5800000000; 3000000000; 1100000000; 6265012359;0; 0; 0; 5009053750; 2000124719; 50.090556181887955; 20.001355593224122
6408691; 13830566; 100463867; -12207031; -30517578; -24414062; 5800000000; 3000000000; 1100000000; 6265012359;0; 0; 0; 5009053750; 2000124719; 50.090556181887955; 20.001355593224122
6420898; 13928222; 100512695; -12207031; -30517578; -24414062; 5800000000; 3000000000; 1100000000; 6265012359;0; 0; 0; 5009053750; 2000124800; 50.090556181887955; 20.001355593224122
6530761; 13903808; 100451660; 0; -30517578; -24414062; 5800000000; 3000000000; 1100000000; 6265012359;0; 0; 0; 5009053750; 2000124800; 50.090556181887955; 20.001355593224122
6567382; 13891601; 100439453; -6103515; -30517578; -24414062; 5800000000; 3000000000; 1100000000; 6265012359;0; 0; 0; 5009053830; 2000124779; 50.090556181887955; 20.001355593224122
6457519; 13891601; 100512695; -6103515; -30517578; -24414062; 5800000000; 3000000000; 1100000000; 6265012359;0; 0; 0; 5009053830; 2000124779; 50.090556181887955; 20.001355593224122
6396484; 13964843; 100512695; -12207031; -30517578; -24414062; 5800000000; 3000000000; 1100000000; 6343495178;0; 0; 0; 5009053830; 2000124850; 50.090556181887955; 20.001355593224122
6530761; 13903808; 100512695; -12207031; -24414062; -30517578; 5800000000; 3000000000; 1100000000; 6265012359;0; 0; 0; 5009053830; 2000124850; 50.090556181887955; 20.001355593224122
6530761; 13977050; 100463867; -12207031; -30517578; -30517578; 5800000000; 3000000000; 1100000000; 6265012359;0; 0; 0; 5009053859; 2000124869; 50.090556181887955; 20.001355593224122
6494140; 13928222; 100537109; -6103515; -30517578; -24414062; 5800000000; 3000000000; 1100000000; 6265012359;0; 0; 0; 5009053859; 2000124869; 50.090556181887955; 20.001355593224122
6384277; 13830566; 100427246; -12207031; -36621093; -24414062; 5800000000; 3000000000; 1100000000; 6265012359;0; 0; 0; 5009053880; 2000124910; 50.090556181887955; 20.001355593224122
6542968; 13952636; 100476074; -12207031; -30517578; -24414062; 5800000000; 3000000000; 1100000000; 6265012359;0; 0; 0; 5009053880; 2000124910; 50.090556181887955; 20.001355593224122
6555175; 13952636; 100378417; -12207031; -24414062; -24414062; 5800000000; 3000000000; 1100000000; 6265012359;0; 0; 0; 5009053830; 2000125000; 50.090556181887955; 20.001355593224122
6420898; 13916015; 100463867; -18310546; -24414062; -30517578; 5800000000; 3000000000; 1200000000; 6265012359;0; 0; 0; 5009053830; 2000125000; 50.090556181887955; 20.001355593224122
6396484; 13916015; 100476074; -12207031; -36621093; -24414062; 5800000000; 3000000000; 1100000000; 6265012359;0; 0; 0; 5009053859; 2000125010; 50.090556181887955; 20.001355593224122
6518554; 13964843; 100476074; -12207031; -30517578; -24414062; 5800000000; 3000000000; 1100000000; 6265012359;0; 0; 0; 5009053859; 2000125010; 50.090556181887955; 20.001355593224122
6555175; 13916015; 100488281; -18310546; -24414062; -24414062; 5800000000; 3000000000; 1100000000; 6265012359;0; 0; 0; 5009053820; 2000125070; 50.090556181887955; 20.001355593224122
6469726; 13977050; 100512695; -18310546; -30517578; -24414062; 5800000000; 3000000000; 1100000000; 6265012359;0; 0; 0; 5009053820; 2000125070; 50.090556181887955; 20.001355593224122
6420898; 14013671; 100488281; -6103515; -30517578; -24414062; 5800000000; 3000000000; 1100000000; 6265012359;0; 0; 0; 5009053870; 2000125130; 50.090556181887955; 20.001355593224122
6408691; 13940429; 100524902; -6103515; -30517578; -24414062; 5800000000; 3000000000; 1100000000; 6265012359;0; 0; 0; 5009053870; 2000125130; 50.090556181887955; 20.001355593224122
6469726; 13916015; 100537109; -12207031; -24414062; -24414062; 5800000000; 3000000000; 1200000000; 6265012359;0; 0; 0; 5009053810; 2000125190; 50.090556181887955; 20.001355593224122
6494140; 13916015; 100402832; 0; -30517578; -24414062; 5800000000; 3000000000; 1100000000; 6265012359;0; 0; 0; 5009053810; 2000125190; 50.090556181887955; 20.001355593224122
6481933; 13903808; 100451660; -6103515; -30517578; -30517578; 5800000000; 3000000000; 1100000000; 6265012359;0; 0; 0; 5009053760; 2000125260; 50.090556181887955; 20.001355593224122
6384277; 13952636; 100488281; -6103515; -30517578; -24414062; 5800000000; 3000000000; 1100000000; 6265012359;0; 0; 0; 5009053760; 2000125260; 50.090556181887955; 20.001355593224122
6445312; 13928222; 100427246; -6103515; -30517578; -24414062; 5800000000; 3000000000; 1100000000; 6265012359;0; 0; 0; 5009053739; 2000125310; 50.090556181887955; 20.001355593224122
6494140; 13842773; 100390625; -6103515; -24414062; -24414062; 5800000000; 3000000000; 1100000000; 6265012359;0; 0; 0; 5009053739; 2000125310; 50.090556181887955; 20.001355593224122
6494140; 13830566; 100476074; -6103515; -24414062; -24414062; 5800000000; 3000000000; 1100000000; 6265012359;0; 0; 0; 5009053739; 2000125380; 50.090556181887955; 20.001355593224122
6445312; 13818359; 100561523; -6103515; -36621093; -24414062; 5800000000; 3000000000; 1100000000; 6265012359;0; 0; 0; 5009053739; 2000125380; 50.090556181887955; 20.001355593224122
6555175; 13916015; 100439453; -18310546; -30517578; -24414062; 5800000000; 3000000000; 1100000000; 6265012359;0; 0; 0; 5009053620; 2000125530; 50.090556181887955; 20.001355593224122
6481933; 13940429; 100512695; -6103515; -36621093; -24414062; 5800000000; 3000000000; 1200000000; 6265012359;0; 0; 0; 5009053620; 2000125530; 50.090556181887955; 20.001355593224122
6420898; 13964843; 100415039; -6103515; -30517578; -24414062; 5800000000; 3000000000; 1100000000; 6265012359;0; 0; 0; 5009053450; 2000125689; 50.090556181887955; 20.001355593224122
6542968; 13977050; 100488281; -6103515; -30517578; -24414062; 5800000000; 3000000000; 1100000000; 6265012359;0; 0; 0; 5009053450; 2000125689; 50.090556181887955; 20.001355593224122
6384277; 13903808; 100451660; -6103515; -30517578; -24414062; 5900000000; 3000000000; 1100000000; 6304782104;0; 0; 0; 5009053249; 2000125929; 50.090556181887955; 20.001355593224122
6567382; 13940429; 100439453; -6103515; -30517578; -24414062; 5800000000; 3000000000; 1100000000; 6265012359;0; 0; 0; 5009053249; 2000125929; 50.090556181887955; 20.001355593224122
6457519; 13879394; 100451660; -6103515; -30517578; -24414062; 5800000000; 3000000000; 1100000000; 6265012359;0; 0; 0; 5009053160; 2000126080; 50.090556181887955; 20.001355593224122
6469726; 14013671; 100500488; -12207031; -24414062; -24414062; 5800000000; 3000000000; 1100000000; 6265012359;0; 0; 0; 5009053160; 2000126080; 50.090556181887955; 20.001355593224122
6445312; 13867187; 100463867; -12207031; -24414062; -24414062; 5800000000; 3000000000; 1100000000; 6265012359;0; 0; 0; 5009052990; 2000126239; 50.090556181887955; 20.001355593224122
6408691; 13989257; 100512695; -6103515; -30517578; -24414062; 5800000000; 3000000000; 1100000000; 6265012359;0; 0; 0; 5009052990; 2000126239; 50.090556181887955; 20.001355593224122
6445312; 13916015; 100463867; 0; -36621093; -24414062; 5800000000; 3000000000; 1100000000; 6265012359;0; 0; 0; 5009052860; 2000126370; 50.090556181887955; 20.001355593224122
6506347; 13977050; 100512695; -12207031; -30517578; -24414062; 5800000000; 3000000000; 1100000000; 6265012359;0; 0; 0; 5009052860; 2000126370; 50.090556181887955; 20.001355593224122
6469726; 14001464; 100476074; -6103515; -30517578; -24414062; 5800000000; 3000000000; 1100000000; 6265012359;0; 0; 0; 5009052730; 2000126530; 50.090556181887955; 20.001355593224122
6494140; 13903808; 100402832; -12207031; -30517578; -24414062; 5800000000; 3000000000; 1100000000; 6265012359;0; 0; 0; 5009052730; 2000126530; 50.090556181887955; 20.001355593224122
6481933; 13903808; 100488281; -12207031; -30517578; -24414062; 5800000000; 3000000000; 1200000000; 6265012359;0; 0; 0; 5009052720; 2000126560; 50.090556181887955; 20.001355593224122
6518554; 13903808; 100476074; -6103515; -30517578; -24414062; 5800000000; 3000000000; 1100000000; 6265012359;0; 0; 0; 5009052720; 2000126560; 50.090556181887955; 20.001355593224122
6567382; 14001464; 100463867; -12207031; -36621093; -30517578; 5800000000; 3000000000; 1100000000; 6265012359;0; 0; 0; 5009052680; 2000126620; 50.090556181887955; 20.001355593224122
6579589; 13940429; 100439453; -6103515; -36621093; -24414062; 5800000000; 3000000000; 1100000000; 6265012359;0; 0; 0; 5009052680; 2000126620; 50.090556181887955; 20.001355593224122
6494140; 14001464; 100463867; -12207031; -30517578; -24414062; 5800000000; 3000000000; 1100000000; 6265012359;0; 0; 0; 5009052660; 2000126639; 50.090556181887955; 20.001355593224122
6457519; 13940429; 100500488; -12207031; -30517578; -30517578; 5700000000; 3000000000; 1100000000; 6224145889;0; 0; 0; 5009052660; 2000126639; 50.090556181887955; 20.001355593224122
6518554; 13867187; 100390625; -12207031; -24414062; -24414062; 5800000000; 3000000000; 1100000000; 6265012359;0; 0; 0; 5009052639; 2000126669; 50.090556181887955; 20.001355593224122
6420898; 14050292; 100476074; -6103515; -36621093; -24414062; 5800000000; 3000000000; 1100000000; 6265012359;0; 0; 0; 5009052639; 2000126669; 50.090556181887955; 20.001355593224122
6445312; 13879394; 100439453; -12207031; -30517578; -24414062; 5800000000; 3000000000; 1100000000; 6265012359;0; 0; 0; 5009052680; 2000126659; 50.090556181887955; 20.001355593224122
6530761; 13916015; 100537109; -6103515; -36621093; -24414062; 5800000000; 3000000000; 1100000000; 6265012359;0; 0; 0; 5009052680; 2000126659; 50.090556181887955; 20.001355593224122
6481933; 13916015; 100488281; -6103515; -36621093; -24414062; 5800000000; 3000000000; 1100000000; 6265012359;0; 0; 0; 5009052680; 2000126719; 50.090556181887955; 20.001355593224122
6469726; 13916015; 100402832; -12207031; -30517578; -24414062; 5800000000; 3000000000; 1100000000; 6265012359;0; 0; 0; 5009052680; 2000126719; 50.090556181887955; 20.001355593224122
6445312; 13928222; 100390625; -12207031; -30517578; -30517578; 5800000000; 3000000000; 1100000000; 6265012359;0; 0; 0; 5009052680; 2000126689; 50.090556181887955; 20.001355593224122
6494140; 13928222; 100390625; -6103515; -36621093; -24414062; 5800000000; 3000000000; 1100000000; 6265012359;0; 0; 0; 5009052680; 2000126689; 50.090556181887955; 20.001355593224122
6384277; 13928222; 100476074; -12207031; -30517578; -24414062; 5800000000; 3000000000; 1100000000; 6265012359;0; 0; 0; 5009052639; 2000126740; 50.090556181887955; 20.001355593224122
6530761; 13916015; 100402832; -12207031; -30517578; -24414062; 5800000000; 3000000000; 1200000000; 6265012359;0; 0; 0; 5009052639; 2000126740; 50.090556181887955; 20.001355593224122
6481933; 13879394; 100488281; -6103515; -30517578; -30517578; 5800000000; 3000000000; 1100000000; 6265012359;0; 0; 0; 5009052579; 2000126849; 50.090556181887955; 20.001355593224122
6286621; 13964843; 100524902; -12207031; -30517578; -24414062; 5800000000; 3000000000; 1100000000; 6265012359;0; 0; 0; 5009052579; 2000126849; 50.090556181887955; 20.001355593224122
6481933; 13879394; 100512695; -12207031; -24414062; -24414062; 5800000000; 3000000000; 1100000000; 6265012359;0; 0; 0; 5009052519; 2000126920; 50.090556181887955; 20.001355593224122
6469726; 13891601; 100378417; -18310546; -30517578; -24414062; 5800000000; 3000000000; 1100000000; 6265012359;0; 0; 0; 5009052519; 2000126920; 50.090556181887955; 20.001355593224122
6457519; 13989257; 100439453; -12207031; -30517578; -24414062; 5800000000; 3000000000; 1100000000; 6265012359;0; 0; 0; 5009052510; 2000127010; 50.090556181887955; 20.001355593224122
6457519; 13867187; 100451660; -6103515; -30517578; -24414062; 5800000000; 3000000000; 1100000000; 6265012359;0; 0; 0; 5009052510; 2000127010; 50.090556181887955; 20.001355593224122
6445312; 13903808; 100451660; -12207031; -30517578; -24414062; 5800000000; 3000000000; 1100000000; 6265012359;0; 0; 0; 5009052519; 2000127050; 50.090556181887955; 20.001355593224122
6408691; 13928222; 100415039; -6103515; -30517578; -30517578; 5800000000; 3000000000; 1100000000; 6265012359;0; 0; 0; 5009052519; 2000127050; 50.090556181887955; 20.001355593224122
6457519; 13891601; 100561523; -12207031; -24414062; -30517578; 5800000000; 3000000000; 1100000000; 6265012359;0; 0; 0; 5009052470; 2000127130; 50.090556181887955; 20.001355593224122
6506347; 13940429; 100463867; -12207031; -30517578; -24414062; 5800000000; 3000000000; 1100000000; 6265012359;0; 0; 0; 5009052470; 2000127130; 50.090556181887955; 20.001355593224122
6494140; 13964843; 100378417; -12207031; -30517578; -24414062; 5800000000; 3000000000; 1100000000; 6265012359;0; 0; 0; 5009052480; 2000127130; 50.090556181887955; 20.001355593224122
6591796; 13928222; 100488281; -6103515; -30517578; -24414062; 5800000000; 3000000000; 1100000000; 6265012359;0; 0; 0; 5009052480; 2000127130; 50.090556181887955; 20.001355593224122
6506347; 13854980; 100537109; -12207031; -30517578; -24414062; 5800000000; 3000000000; 1100000000; 6265012359;0; 0; 0; 5009052470; 2000127160; 50.090556181887955; 20.001355593224122
6445312; 13891601; 100488281; -6103515; -30517578; -24414062; 5800000000; 3000000000; 1100000000; 6265012359;0; 0; 0; 5009052470; 2000127160; 50.090556181887955; 20.001355593224122
6506347; 13891601; 100451660; -6103515; -30517578; -24414062; 5800000000; 3000000000; 1100000000; 6265012359;0; 0; 0; 5009052430; 2000127269; 50.090556181887955; 20.001355593224122
6518554; 13940429; 100561523; -6103515; -36621093; -24414062; 5800000000; 3000000000; 1100000000; 6265012359;0; 0; 0; 5009052430; 2000127269; 50.090556181887955; 20.001355593224122
6384277; 13891601; 100500488; 0; -36621093; -30517578; 5800000000; 3000000000; 1100000000; 6265012359;0; 0; 0; 5009052380; 2000127350; 50.090556181887955; 20.001355593224122
6457519; 13928222; 100463867; -6103515; -30517578; -30517578; 5800000000; 3000000000; 1100000000; 6265012359;0; 0; 0; 5009052380; 2000127350; 50.090556181887955; 20.001355593224122
6567382; 13928222; 100451660; -12207031; -30517578; -24414062; 5800000000; 3000000000; 1100000000; 6265012359;0; 0; 0; 5009052279; 2000127519; 50.090556181887955; 20.001355593224122
6542968; 13903808; 100439453; -12207031; -30517578; -30517578; 5800000000; 3000000000; 1100000000; 6265012359;0; 0; 0; 5009052279; 2000127519; 50.090556181887955; 20.001355593224122
6433105; 13891601; 100427246; -6103515; -30517578; -24414062; 5800000000; 3000000000; 1100000000; 6224145889;0; 0; 0; 5009052180; 2000127690; 50.090556181887955; 20.001355593224122
6518554; 13854980; 100439453; -12207031; -30517578; -24414062; 5800000000; 3000000000; 1100000000; 6265012359;0; 0; 0; 5009052180; 2000127690; 50.090556181887955; 20.001355593224122
6555175; 13989257; 100415039; -12207031; -30517578; -24414062; 5800000000; 3000000000; 1100000000; 6265012359;0; 0; 0; 5009052170; 2000127759; 50.090556181887955; 20.001355593224122
6591796; 13879394; 100378417; -12207031; -30517578; -24414062; 5800000000; 3000000000; 1100000000; 6265012359;0; 0; 0; 5009052170; 2000127759; 50.090556181887955; 20.001355593224122
6567382; 13977050; 100488281; -12207031; -30517578; -24414062; 5800000000; 3000000000; 1100000000; 6265012359;0; 0; 0; 5009052100; 2000127890; 50.090556181887955; 20.001355593224122
6506347; 13989257; 100524902; -18310546; -24414062; -30517578; 5800000000; 3000000000; 1100000000; 6265012359;0; 0; 0; 5009052100; 2000127890; 50.090556181887955; 20.001355593224122
6481933; 13989257; 100366210; -12207031; -30517578; -24414062; 5800000000; 3000000000; 1100000000; 6265012359;0; 0; 0; 5009052070; 2000127950; 50.090556181887955; 20.001355593224122
6445312; 13903808; 100512695; -12207031; -30517578; -24414062; 5800000000; 3000000000; 1100000000; 6265012359;0; 0; 0; 5009052070; 2000127950; 50.090556181887955; 20.001355593224122
6469726; 13793945; 100500488; -12207031; -30517578; -24414062; 5800000000; 3000000000; 1100000000; 6265012359;0; 0; 0; 5009051940; 2000128119; 50.090556181887955; 20.001355593224122
6591796; 13928222; 100500488; -12207031; -30517578; -30517578; 5800000000; 3000000000; 1100000000; 6265012359;0; 0; 0; 5009051940; 2000128119; 50.090556181887955; 20.001355593224122
6555175; 13891601; 100488281; -12207031; -30517578; -24414062; 5800000000; 3000000000; 1100000000; 6265012359;0; 0; 0; 5009051860; 2000128279; 50.090556181887955; 20.001355593224122
6555175; 13977050; 100476074; -12207031; -30517578; -24414062; 5800000000; 3000000000; 1100000000; 6265012359;0; 0; 0; 5009051860; 2000128279; 50.090556181887955; 20.001355593224122
6469726; 13964843; 100427246; -12207031; -30517578; -24414062; 5800000000; 3000000000; 1100000000; 6265012359;0; 0; 0; 5009051780; 2000128440; 50.090556181887955; 20.001355593224122
6445312; 13842773; 100439453; -12207031; -30517578; -24414062; 5800000000; 3000000000; 1100000000; 6265012359;0; 0; 0; 5009051780; 2000128440; 50.090556181887955; 20.001355593224122
6445312; 13903808; 100366210; 0; -36621093; -30517578; 5800000000; 3000000000; 1100000000; 6265012359;0; 0; 0; 5009051669; 2000128639; 50.090556181887955; 20.001355593224122
6567382; 14013671; 100390625; -6103515; -36621093; -24414062; 5800000000; 3000000000; 1100000000; 6265012359;0; 0; 0; 5009051669; 2000128639; 50.090556181887955; 20.001355593224122
6445312; 13940429; 100427246; -6103515; -30517578; -24414062; 5800000000; 3000000000; 1100000000; 6265012359;0; 0; 0; 5009051660; 2000128729; 50.090556181887955; 20.001355593224122
6445312; 13940429; 100537109; -6103515; -30517578; -24414062; 5800000000; 3000000000; 1100000000; 6265012359;0; 0; 0; 5009051660; 2000128729; 50.090556181887955; 20.001355593224122
6604003; 13928222; 100573730; -6103515; -30517578; -24414062; 5800000000; 3000000000; 1100000000; 6265012359;0; 0; 0; 5009051630; 2000128840; 50.090556181887955; 20.001355593224122
6420898; 13903808; 100451660; -6103515; -30517578; -24414062; 5800000000; 3000000000; 1100000000; 6265012359;0; 0; 0; 5009051630; 2000128840; 50.090556181887955; 20.001355593224122
6494140; 13891601; 100427246; 0; -30517578; -24414062; 5800000000; 3000000000; 1100000000; 6265012359;0; 0; 0; 5009051600; 2000128889; 50.090556181887955; 20.001355593224122
6530761; 13928222; 100476074; -12207031; -30517578; -24414062; 5800000000; 3000000000; 1000000000; 6265012359;0; 0; 0; 5009051600; 2000128889; 50.090556181887955; 20.001355593224122
6591796; 13830566; 100427246; -6103515; -36621093; -24414062; 5800000000; 3000000000; 1100000000; 6265012359;0; 0; 0; 5009051600; 2000128930; 50.090556181887955; 20.001355593224122
6457519; 13854980; 100439453; -6103515; -24414062; -24414062; 5800000000; 3000000000; 1100000000; 6265012359;0; 0; 0; 5009051600; 2000128930; 50.090556181887955; 20.001355593224122
6494140; 13830566; 100488281; -12207031; -24414062; -30517578; 5800000000; 3000000000; 1100000000; 6265012359;0; 0; 0; 5009051660; 2000128870; 50.090556181887955; 20.001355593224122
6530761; 13916015; 100512695; -12207031; -24414062; -30517578; 5800000000; 3000000000; 1100000000; 6265012359;0; 0; 0; 5009051660; 2000128870; 50.090556181887955; 20.001355593224122
6469726; 13842773; 100500488; -6103515; -30517578; -24414062; 5800000000; 3000000000; 1100000000; 6265012359;0; 0; 0; 5009051710; 2000128870; 50.090556181887955; 20.001355593224122
6469726; 13879394; 100402832; -18310546; -24414062; -24414062; 5800000000; 3000000000; 1100000000; 6265012359;0; 0; 0; 5009051710; 2000128870; 50.090556181887955; 20.001355593224122
6469726; 13928222; 100439453; -12207031; -24414062; -24414062; 5800000000; 3000000000; 1100000000; 6265012359;0; 0; 0; 5009051710; 2000128889; 50.090556181887955; 20.001355593224122
6518554; 13940429; 100500488; -12207031; -30517578; -30517578; 5800000000; 3000000000; 1100000000; 6265012359;0; 0; 0; 5009051710; 2000128889; 50.090556181887955; 20.001355593224122
6469726; 13854980; 100378417; -12207031; -30517578; -30517578; 5800000000; 3000000000; 1100000000; 6265012359;0; 0; 0; 5009051640; 2000129020; 50.090556181887955; 20.001355593224122
6494140; 13977050; 100476074; 0; -36621093; -24414062; 5800000000; 3000000000; 1100000000; 6265012359;0; 0; 0; 5009051640; 2000129020; 50.090556181887955; 20.001355593224122
6433105; 13867187; 100451660; -6103515; -30517578; -24414062; 5800000000; 3000000000; 1100000000; 6265012359;0; 0; 0; 5009051650; 2000129069; 50.090556181887955; 20.001355593224122
6469726; 13964843; 100451660; -6103515; -24414062; -24414062; 5800000000; 3000000000; 1100000000; 6265012359;0; 0; 0; 5009051650; 2000129069; 50.090556181887955; 20.001355593224122
6542968; 13916015; 100427246; -12207031; -30517578; -24414062; 5800000000; 3000000000; 1100000000; 6265012359;0; 0; 0; 5009051640; 2000129050; 50.090556181887955; 20.001355593224122
6445312; 13989257; 100476074; -6103515; -30517578; -30517578; 5800000000; 3000000000; 1100000000; 6265012359;0; 0; 0; 5009051640; 2000129050; 50.090556181887955; 20.001355593224122
6457519; 13879394; 100512695; -12207031; -30517578; -30517578; 5800000000; 3000000000; 1100000000; 6265012359;0; 0; 0; 5009051690; 2000129030; 50.090556181887955; 20.001355593224122
6494140; 13854980; 100451660; -12207031; -24414062; -24414062; 5800000000; 3000000000; 1100000000; 6265012359;0; 0; 0; 5009051690; 2000129030; 50.090556181887955; 20.001355593224122
6445312; 13977050; 100427246; -18310546; -24414062; -30517578; 5800000000; 3000000000; 1100000000; 6265012359;0; 0; 0; 5009051740; 2000129020; 50.090556181887955; 20.001355593224122
6457519; 13928222; 100488281; -12207031; -30517578; -24414062; 5800000000; 3000000000; 1100000000; 6265012359;0; 0; 0; 5009051740; 2000129020; 50.090556181887955; 20.001355593224122
6506347; 13903808; 100500488; -12207031; -30517578; -30517578; 5800000000; 3000000000; 1200000000; 6265012359;0; 0; 0; 5009051810; 2000128990; 50.090556181887955; 20.001355593224122
6445312; 13891601; 100500488; -18310546; -24414062; -24414062; 5800000000; 3000000000; 1100000000; 6265012359;0; 0; 0; 5009051810; 2000128990; 50.090556181887955; 20.001355593224122
6433105; 13903808; 100439453; -12207031; -30517578; -24414062; 5800000000; 3000000000; 1200000000; 6265012359;0; 0; 0; 5009051800; 2000128979; 50.090556181887955; 20.001355593224122
6469726; 13928222; 100451660; -6103515; -36621093; -24414062; 5800000000; 3000000000; 1100000000; 6265012359;0; 0; 0; 5009051800; 2000128979; 50.090556181887955; 20.001355593224122
6457519; 13916015; 100512695; -6103515; -36621093; -24414062; 5800000000; 3000000000; 1100000000; 6265012359;0; 0; 0; 5009051840; 2000128949; 50.090556181887955; 20.001355593224122
6469726; 13891601; 100476074; -6103515; -30517578; -24414062; 5800000000; 3000000000; 1100000000; 6265012359;0; 0; 0; 5009051840; 2000128949; 50.090556181887955; 20.001355593224122
6469726; 13830566; 100524902; -6103515; -30517578; -30517578; 5700000000; 3000000000; 1100000000; 6265012359;0; 0; 0; 5009051890; 2000128859; 50.090556181887955; 20.001355593224122
6408691; 13940429; 100415039; -6103515; -30517578; -24414062; 5800000000; 3000000000; 1100000000; 6265012359;0; 0; 0; 5009051890; 2000128859; 50.090556181887955; 20.001355593224122
6481933; 13916015; 100439453; -12207031; -30517578; -24414062; 5800000000; 3000000000; 1100000000; 6265012359;0; 0; 0; 5009051890; 2000128859; 50.090556181887955; 20.001355593224122
6542968; 13854980; 100390625; -12207031; -30517578; -24414062; 5800000000; 3000000000; 1100000000; 6265012359;0; 0; 0; 5009051890; 2000128859; 50.090556181887955; 20.001355593224122
6481933; 13830566; 100488281; -12207031; -36621093; -24414062; 5800000000; 3000000000; 1100000000; 6265012359;0; 0; 0; 5009051940; 2000128840; 50.090556181887955; 20.001355593224122
6518554; 13867187; 100390625; -12207031; -30517578; -30517578; 5800000000; 3000000000; 1100000000; 6265012359;0; 0; 0; 5009051940; 2000128840; 50.090556181887955; 20.001355593224122
6481933; 13879394; 100427246; -6103515; -30517578; -24414062; 5800000000; 3000000000; 1100000000; 6265012359;0; 0; 0; 5009052000; 2000128780; 50.090556181887955; 20.001355593224122
6372070; 13940429; 100463867; -12207031; -30517578; -24414062; 5800000000; 3000000000; 1100000000; 6265012359;0; 0; 0; 5009052000; 2000128780; 50.090556181887955; 20.001355593224122
6457519; 13867187; 100390625; -12207031; -30517578; -24414062; 5800000000; 3000000000; 1100000000; 6265012359;0; 0; 0; 5009051980; 2000128800; 50.090556181887955; 20.001355593224122
6420898; 13928222; 100451660; -6103515; -36621093; -24414062; 5800000000; 3000000000; 1100000000; 6265012359;0; 0; 0; 5009051980; 2000128800; 50.090556181887955; 20.001355593224122
6481933; 13977050; 100512695; -6103515; -36621093; -24414062; 5800000000; 3000000000; 1200000000; 6265012359;0; 0; 0; 5009052089; 2000128690; 50.090556181887955; 20.001355593224122
6555175; 13928222; 100415039; -12207031; -30517578; -30517578; 5800000000; 3000000000; 1100000000; 6265012359;0; 0; 0; 5009052089; 2000128690; 50.090556181887955; 20.001355593224122
6420898; 13916015; 100390625; -12207031; -30517578; -30517578; 5800000000; 3000000000; 1100000000; 6265012359;0; 0; 0; 5009052160; 2000128650; 50.090556181887955; 20.001355593224122
6494140; 13940429; 100402832; -12207031; -30517578; -24414062; 5800000000; 3000000000; 1100000000; 6265012359;0; 0; 0; 5009052160; 2000128650; 50.090556181887955; 20.001355593224122
6408691; 13964843; 100439453; -6103515; -36621093; -24414062; 5800000000; 3000000000; 1100000000; 6265012359;0; 0; 0; 5009052250; 2000128590; 50.090556181887955; 20.001355593224122
6567382; 13928222; 100427246; -12207031; -30517578; -24414062; 5800000000; 3000000000; 1100000000; 6265012359;0; 0; 0; 5009052250; 2000128590; 50.090556181887955; 20.001355593224122
6518554; 13977050; 100402832; -12207031; -30517578; -24414062; 5800000000; 3000000000; 1100000000; 6265012359;0; 0; 0; 5009052290; 2000128560; 50.090556181887955; 20.001355593224122
6506347; 13964843; 100463867; -24414062; -24414062; -24414062; 5800000000; 3000000000; 1100000000; 6265012359;0; 0; 0; 5009052290; 2000128560; 50.090556181887955; 20.001355593224122
6591796; 13940429; 100488281; -6103515; -36621093; -24414062; 5800000000; 3000000000; 1000000000; 6265012359;0; 0; 0; 5009052350; 2000128500; 50.090556181887955; 20.001355593224122
6530761; 13952636; 100537109; 0; -36621093; -24414062; 5800000000; 3000000000; 1100000000; 6265012359;0; 0; 0; 5009052350; 2000128500; 50.090556181887955; 20.001355593224122
6481933; 13928222; 100500488; -24414062; -18310546; -24414062; 5800000000; 3000000000; 1100000000; 6265012359;0; 0; 0; 5009052399; 2000128459; 50.090556181887955; 20.001355593224122
6494140; 13818359; 100415039; -12207031; -30517578; -24414062; 5800000000; 3000000000; 1100000000; 6265012359;0; 0; 0; 5009052399; 2000128459; 50.090556181887955; 20.001355593224122
6518554; 13916015; 100488281; -12207031; -30517578; -24414062; 5800000000; 3000000000; 1100000000; 6265012359;0; 0; 0; 5009052430; 2000128429; 50.090556181887955; 20.001355593224122
6469726; 13928222; 100451660; -6103515; -36621093; -24414062; 5800000000; 3000000000; 1100000000; 6265012359;0; 0; 0; 5009052430; 2000128429; 50.090556181887955; 20.001355593224122
6530761; 13952636; 100512695; -12207031; -30517578; -24414062; 5800000000; 3000000000; 1100000000; 6265012359;0; 0; 0; 5009052290; 2000128579; 50.090556181887955; 20.001355593224122
6445312; 13867187; 100512695; -12207031; -24414062; -24414062; 5800000000; 3000000000; 1200000000; 6265012359;0; 0; 0; 5009052290; 2000128579; 50.090556181887955; 20.001355593224122
6530761; 13891601; 100537109; -6103515; -30517578; -30517578; 5800000000; 3000000000; 1100000000; 6265012359;0; 0; 0; 5009052210; 2000128669; 50.090556181887955; 20.001355593224122
6408691; 13952636; 100512695; -6103515; -30517578; -30517578; 5800000000; 3000000000; 1200000000; 6265012359;0; 0; 0; 5009052210; 2000128669; 50.090556181887955; 20.001355593224122
6530761; 13903808; 100524902; -6103515; -24414062; -24414062; 5800000000; 3000000000; 1100000000; 6265012359;0; 0; 0; 5009052070; 2000128909; 50.090556181887955; 20.001355593224122
6506347; 13940429; 100439453; -6103515; -30517578; -30517578; 5800000000; 3000000000; 1100000000; 6265012359;0; 0; 0; 5009052070; 2000128909; 50.090556181887955; 20.001355593224122
6445312; 13952636; 100378417; -18310546; -24414062; -24414062; 5800000000; 3000000000; 1100000000; 6265012359;0; 0; 0; 5009051940; 2000129069; 50.090556181887955; 20.001355593224122
6335449; 13903808; 100476074; -12207031; -30517578; -24414062; 5800000000; 3000000000; 1100000000; 6265012359;0; 0; 0; 5009051940; 2000129069; 50.090556181887955; 20.001355593224122
6530761; 13928222; 100488281; -6103515; -30517578; -30517578; 5800000000; 3000000000; 1200000000; 6265012359;0; 0; 0; 5009051840; 2000129219; 50.090556181887955; 20.001355593224122
6420898; 13940429; 100488281; -6103515; -30517578; -30517578; 5800000000; 3000000000; 1100000000; 6265012359;0; 0; 0; 5009051840; 2000129219; 50.090556181887955; 20.001355593224122
6542968; 13940429; 100439453; -12207031; -30517578; -24414062; 5800000000; 3000000000; 1100000000; 6265012359;0; 0; 0; 5009051710; 2000129429; 50.090556181887955; 20.001355593224122
6506347; 13940429; 100488281; 0; -36621093; -24414062; 5800000000; 3000000000; 1100000000; 6265012359;0; 0; 0; 5009051710; 2000129429; 50.090556181887955; 20.001355593224122
6372070; 13916015; 100476074; -6103515; -30517578; -30517578; 5800000000; 3000000000; 1100000000; 6265012359;0; 0; 0; 5009051690; 2000129470; 50.090556181887955; 20.001355593224122
6567382; 13891601; 100476074; -12207031; -24414062; -30517578; 5800000000; 2900000000; 1100000000; 6343495178;0; 0; 0; 5009051690; 2000129470; 50.090556181887955; 20.001355593224122
6555175; 13879394; 100549316; -6103515; -30517578; -24414062; 5800000000; 3000000000; 1100000000; 6265012359;0; 0; 0; 5009051640; 2000129540; 50.090556181887955; 20.001355593224122
6445312; 13842773; 100451660; -12207031; -30517578; -24414062; 5800000000; 3100000000; 1100000000; 6187626266;0; 0; 0; 5009051640; 2000129540; 50.090556181887955; 20.001355593224122
6433105; 13879394; 100451660; 0; -36621093; -24414062; 5800000000; 3000000000; 1100000000; 6265012359;0; 0; 0; 5009051530; 2000129679; 50.090556181887955; 20.001355593224122
6481933; 13879394; 100463867; -12207031; -30517578; -24414062; 5800000000; 3000000000; 1100000000; 6265012359;0; 0; 0; 5009051530; 2000129679; 50.090556181887955; 20.001355593224122
6506347; 13867187; 100451660; -12207031; -30517578; -24414062; 5800000000; 3000000000; 1100000000; 6265012359;0; 0; 0; 5009051400; 2000129850; 50.090556181887955; 20.001355593224122
6433105; 14013671; 100476074; -12207031; -30517578; -30517578; 5800000000; 3000000000; 1100000000; 6265012359;0; 0; 0; 5009051400; 2000129850; 50.090556181887955; 20.001355593224122
6494140; 13989257; 100524902; -6103515; -24414062; -24414062; 5800000000; 3000000000; 1100000000; 6265012359;0; 0; 0; 5009051330; 2000130009; 50.090556181887955; 20.001355593224122
6384277; 13989257; 100512695; -6103515; -30517578; -24414062; 5800000000; 3000000000; 1100000000; 6265012359;0; 0; 0; 5009051330; 2000130009; 50.090556181887955; 20.001355593224122
6372070; 13854980; 100500488; 0; -36621093; -30517578; 5800000000; 3000000000; 1100000000; 6265012359;0; 0; 0; 5009051239; 2000130189; 50.090556181887955; 20.001355593224122
6433105; 13818359; 100415039; -18310546; -24414062; -24414062; 5800000000; 3000000000; 1100000000; 6265012359;0; 0; 0; 5009051239; 2000130189; 50.090556181887955; 20.001355593224122
6567382; 13867187; 100463867; -12207031; -30517578; -24414062; 5800000000; 3000000000; 1100000000; 6265012359;0; 0; 0; 5009051170; 2000130300; 50.090556181887955; 20.001355593224122
6518554; 13989257; 100500488; -12207031; -30517578; -24414062; 5800000000; 3000000000; 1100000000; 6265012359;0; 0; 0; 5009051170; 2000130300; 50.090556181887955; 20.001355593224122
6372070; 13989257; 100524902; -6103515; -30517578; -30517578; 5800000000; 3000000000; 1100000000; 6265012359;0; 0; 0; 5009051110; 2000130469; 50.090556181887955; 20.001355593224122
6445312; 14050292; 100463867; -12207031; -24414062; -24414062; 5800000000; 3000000000; 1100000000; 6265012359;0; 0; 0; 5009051110; 2000130469; 50.090556181887955; 20.001355593224122
6433105; 13879394; 100500488; -12207031; -36621093; -24414062; 5800000000; 3000000000; 1100000000; 6265012359;0; 0; 0; 5009050930; 2000130709; 50.090556181887955; 20.001355593224122
6420898; 13964843; 100512695; -12207031; -30517578; -24414062; 5800000000; 3000000000; 1100000000; 6265012359;0; 0; 0; 5009050930; 2000130709; 50.090556181887955; 20.001355593224122
6420898; 13854980; 100463867; -12207031; -30517578; -24414062; 5700000000; 3000000000; 1100000000; 6224145889;0; 0; 0; 5009050819; 2000130889; 50.090556181887955; 20.001355593224122
6506347; 13818359; 100476074; -12207031; -30517578; -24414062; 5800000000; 3000000000; 1100000000; 6265012359;0; 0; 0; 5009050819; 2000130889; 50.090556181887955; 20.001355593224122
6604003; 13903808; 100463867; -12207031; -30517578; -24414062; 5800000000; 3000000000; 1100000000; 6265012359;0; 0; 0; 5009050720; 2000131039; 50.090556181887955; 20.001355593224122
6481933; 13891601; 100488281; 0; -36621093; -30517578; 5800000000; 3000000000; 1100000000; 6265012359;0; 0; 0; 5009050720; 2000131039; 50.090556181887955; 20.001355593224122
6518554; 13854980; 100415039; -12207031; -24414062; -24414062; 5800000000; 3000000000; 1100000000; 6265012359;0; 0; 0; 5009050580; 2000131229; 50.090556181887955; 20.001355593224122
6457519; 13854980; 100512695; -6103515; -30517578; -24414062; 5800000000; 3000000000; 1100000000; 6265012359;0; 0; 0; 5009050580; 2000131229; 50.090556181887955; 20.001355593224122
6494140; 13928222; 100500488; -6103515; -24414062; -30517578; 5800000000; 3000000000; 1100000000; 6265012359;0; 0; 0; 5009050460; 2000131409; 50.090556181887955; 20.001355593224122
6506347; 13842773; 100354003; -6103515; -36621093; -24414062; 5800000000; 3000000000; 1100000000; 6265012359;0; 0; 0; 5009050460; 2000131409; 50.090556181887955; 20.001355593224122
6542968; 13879394; 100488281; -12207031; -30517578; -24414062; 5800000000; 3000000000; 1100000000; 6265012359;0; 0; 0; 5009050290; 2000131589; 50.090556181887955; 20.001355593224122
6506347; 13916015; 100415039; -12207031; -30517578; -24414062; 5800000000; 3000000000; 1100000000; 6265012359;0; 0; 0; 5009050290; 2000131589; 50.090556181887955; 20.001355593224122
6420898; 13916015; 100488281; 0; -36621093; -30517578; 5800000000; 3000000000; 1100000000; 6265012359;0; 0; 0; 5009050149; 2000131750; 50.090556181887955; 20.001355593224122
6530761; 13903808; 100451660; -12207031; -30517578; -24414062; 5800000000; 3000000000; 1100000000; 6265012359;0; 0; 0; 5009050149; 2000131750; 50.090556181887955; 20.001355593224122
6555175; 13964843; 100524902; -6103515; -36621093; -24414062; 5800000000; 3000000000; 1100000000; 6265012359;0; 0; 0; 5009050000; 2000131949; 50.090556181887955; 20.001355593224122
6481933; 13940429; 100463867; -12207031; -36621093; -30517578; 5800000000; 3000000000; 1100000000; 6265012359;0; 0; 0; 5009050000; 2000131949; 50.090556181887955; 20.001355593224122
6469726; 13854980; 100476074; 0; -30517578; -24414062; 5800000000; 3000000000; 1100000000; 6265012359;0; 0; 0; 5009049870; 2000132139; 50.090556181887955; 20.001355593224122
6494140; 13891601; 100463867; -6103515; -30517578; -24414062; 5800000000; 3000000000; 1100000000; 6265012359;0; 0; 0; 5009049870; 2000132139; 50.090556181887955; 20.001355593224122
6530761; 13854980; 100463867; -6103515; -30517578; -24414062; 5800000000; 3000000000; 1100000000; 6265012359;0; 0; 0; 5009049810; 2000132220; 50.090556181887955; 20.001355593224122
6445312; 13977050; 100476074; -6103515; -30517578; -30517578; 5800000000; 3000000000; 1100000000; 6265012359;0; 0; 0; 5009049810; 2000132220; 50.090556181887955; 20.001355593224122
6408691; 13867187; 100463867; 0; -30517578; -24414062; 5800000000; 3000000000; 1100000000; 6265012359;0; 0; 0; 5009049760; 2000132280; 50.090556181887955; 20.001355593224122
6530761; 13940429; 100512695; -6103515; -24414062; -24414062; 5800000000; 3000000000; 1100000000; 6265012359;0; 0; 0; 5009049760; 2000132280; 50.090556181887955; 20.001355593224122
6469726; 14013671; 100488281; -6103515; -30517578; -24414062; 5800000000; 3000000000; 1100000000; 6265012359;0; 0; 0; 5009049779; 2000132280; 50.090556181887955; 20.001355593224122
6518554; 13842773; 100476074; -18310546; -24414062; -30517578; 5800000000; 3000000000; 1100000000; 6265012359;0; 0; 0; 5009049779; 2000132280; 50.090556181887955; 20.001355593224122
6506347; 13916015; 100488281; -6103515; -30517578; -24414062; 5800000000; 3100000000; 1100000000; 6187626266;0; 0; 0; 5009049750; 2000132289; 50.090556181887955; 20.001355593224122
6579589; 13818359; 100476074; -12207031; -30517578; -24414062; 5800000000; 3000000000; 1100000000; 6265012359;0; 0; 0; 5009049750; 2000132289; 50.090556181887955; 20.001355593224122
6481933; 13818359; 100415039; -6103515; -36621093; -30517578; 5800000000; 3000000000; 1100000000; 6265012359;0; 0; 0; 5009049719; 2000132300; 50.090556181887955; 20.001355593224122
6591796; 13903808; 100415039; -12207031; -30517578; -24414062; 5800000000; 3000000000; 1100000000; 6265012359;0; 0; 0; 5009049719; 2000132300; 50.090556181887955; 20.001355593224122
6518554; 13830566; 100488281; -6103515; -30517578; -24414062; 5800000000; 3000000000; 1100000000; 6265012359;0; 0; 0; 5009049700; 2000132330; 50.090556181887955; 20.001355593224122
6396484; 13952636; 100561523; -12207031; -30517578; -24414062; 5800000000; 3000000000; 1100000000; 6265012359;0; 0; 0; 5009049700; 2000132330; 50.090556181887955; 20.001355593224122
6420898; 13952636; 100378417; -6103515; -30517578; -30517578; 5800000000; 3000000000; 1100000000; 6265012359;0; 0; 0; 5009049690; 2000132319; 50.090556181887955; 20.001355593224122
6457519; 13916015; 100439453; -12207031; -30517578; -24414062; 5800000000; 3000000000; 1100000000; 6265012359;0; 0; 0; 5009049690; 2000132319; 50.090556181887955; 20.001355593224122
6652832; 13903808; 100463867; -18310546; -24414062; -24414062; 5800000000; 3000000000; 1100000000; 6265012359;0; 0; 0; 5009049659; 2000132340; 50.090556181887955; 20.001355593224122
6445312; 13952636; 100390625; -6103515; -36621093; -24414062; 5800000000; 3000000000; 1100000000; 6265012359;0; 0; 0; 5009049659; 2000132340; 50.090556181887955; 20.001355593224122
6591796; 13928222; 100451660; -12207031; -30517578; -24414062; 5800000000; 3000000000; 1100000000; 6265012359;0; 0; 0; 5009049700; 2000132300; 50.090556181887955; 20.001355593224122
6420898; 13903808; 100488281; -12207031; -36621093; -24414062; 5800000000; 3000000000; 1100000000; 6265012359;0; 0; 0; 5009049700; 2000132300; 50.090556181887955; 20.001355593224122
6506347; 13916015; 100500488; -12207031; -30517578; -30517578; 5700000000; 3000000000; 1100000000; 6224145889;0; 0; 0; 5009049680; 2000132300; 50.090556181887955; 20.001355593224122
6420898; 13903808; 100573730; -12207031; -36621093; -24414062; 5800000000; 3000000000; 1100000000; 6265012359;0; 0; 0; 5009049680; 2000132300; 50.090556181887955; 20.001355593224122
6481933; 13940429; 100524902; 0; -36621093; -24414062; 5800000000; 3000000000; 1100000000; 6265012359;0; 0; 0; 5009049670; 2000132360; 50.090556181887955; 20.001355593224122
6494140; 13891601; 100573730; -6103515; -36621093; -24414062; 5800000000; 3000000000; 1100000000; 6265012359;0; 0; 0; 5009049670; 2000132360; 50.090556181887955; 20.001355593224122
6433105; 14013671; 100415039; -6103515; -30517578; -24414062; 5800000000; 3000000000; 1100000000; 6265012359;0; 0; 0; 5009049670; 2000132390; 50.090556181887955; 20.001355593224122
6542968; 13867187; 100427246; -6103515; -24414062; -30517578; 5800000000; 3000000000; 1100000000; 6265012359;0; 0; 0; 5009049670; 2000132390; 50.090556181887955; 20.001355593224122
6506347; 13818359; 100476074; -6103515; -30517578; -30517578; 5800000000; 3000000000; 1000000000; 6265012359;0; 0; 0; 5009049630; 2000132460; 50.090556181887955; 20.001355593224122
6408691; 13891601; 100537109; -6103515; -36621093; -24414062; 5800000000; 3000000000; 1100000000; 6265012359;0; 0; 0; 5009049630; 2000132460; 50.090556181887955; 20.001355593224122
6457519; 13952636; 100488281; 0; -30517578; -24414062; 5800000000; 3000000000; 1100000000; 6265012359;0; 0; 0; 5009049580; 2000132580; 50.090556181887955; 20.001355593224122
6652832; 13928222; 100439453; -6103515; -24414062; -30517578; 5800000000; 3000000000; 1100000000; 6265012359;0; 0; 0; 5009049580; 2000132580; 50.090556181887955; 20.001355593224122
6555175; 13854980; 100451660; -12207031; -36621093; -30517578; 5800000000; 3000000000; 1100000000; 6265012359;0; 0; 0; 5009049570; 2000132640; 50.090556181887955; 20.001355593224122
6457519; 13830566; 100537109; -6103515; -30517578; -24414062; 5800000000; 3000000000; 1100000000; 6265012359;0; 0; 0; 5009049570; 2000132640; 50.090556181887955; 20.001355593224122
6530761; 13879394; 100500488; -12207031; -24414062; -30517578; 5800000000; 3000000000; 1200000000; 6265012359;0; 0; 0; 5009049539; 2000132709; 50.090556181887955; 20.001355593224122
6555175; 13806152; 100463867; -6103515; -24414062; -30517578; 5800000000; 3000000000; 1100000000; 6265012359;0; 0; 0; 5009049539; 2000132709; 50.090556181887955; 20.001355593224122
6530761; 13793945; 100415039; -12207031; -30517578; -30517578; 5800000000; 3000000000; 1100000000; 6265012359;0; 0; 0; 5009049479; 2000132769; 50.090556181887955; 20.001355593224122
6506347; 13940429; 100512695; -6103515; -36621093; -30517578; 5800000000; 3000000000; 1100000000; 6265012359;0; 0; 0; 5009049479; 2000132769; 50.090556181887955; 20.001355593224122
6420898; 13842773; 100451660; -12207031; -30517578; -24414062; 5800000000; 3000000000; 1200000000; 6265012359;0; 0; 0; 5009049440; 2000132779; 50.090556181887955; 20.001355593224122
6506347; 13891601; 100512695; -6103515; -30517578; -24414062; 5800000000; 3000000000; 1100000000; 6265012359;0; 0; 0; 5009049440; 2000132779; 50.090556181887955; 20.001355593224122
6433105; 13879394; 100427246; -6103515; -30517578; -24414062; 5800000000; 3000000000; 1100000000; 6265012359;0; 0; 0; 5009049450; 2000132799; 50.090556181887955; 20.001355593224122
6506347; 13818359; 100524902; -6103515; -30517578; -24414062; 5800000000; 3000000000; 1100000000; 6265012359;0; 0; 0; 5009049450; 2000132799; 50.090556181887955; 20.001355593224122
6457519; 13867187; 100415039; 0; -30517578; -30517578; 5800000000; 3000000000; 1100000000; 6265012359;0; 0; 0; 5009049419; 2000132830; 50.090556181887955; 20.001355593224122
6420898; 13879394; 100476074; -6103515; -30517578; -24414062; 5800000000; 3000000000; 1100000000; 6265012359;0; 0; 0; 5009049419; 2000132830; 50.090556181887955; 20.001355593224122
6481933; 13903808; 100463867; -6103515; -30517578; -30517578; 5900000000; 3000000000; 1100000000; 6304782104;0; 0; 0; 5009049430; 2000132869; 50.090556181887955; 20.001355593224122
6506347; 13928222; 100415039; -12207031; -30517578; -30517578; 5800000000; 3000000000; 1100000000; 6265012359;0; 0; 0; 5009049430; 2000132869; 50.090556181887955; 20.001355593224122
6469726; 13903808; 100500488; -6103515; -36621093; -24414062; 5800000000; 3000000000; 1100000000; 6265012359;0; 0; 0; 5009049410; 2000132970; 50.090556181887955; 20.001355593224122
6494140; 13903808; 100415039; -12207031; -30517578; -30517578; 5800000000; 3000000000; 1100000000; 6265012359;0; 0; 0; 5009049410; 2000132970; 50.090556181887955; 20.001355593224122
6530761; 13854980; 100476074; -6103515; -30517578; -24414062; 5800000000; 3000000000; 1100000000; 6265012359;0; 0; 0; 5009049380; 2000133070; 50.090556181887955; 20.001355593224122
6469726; 13830566; 100524902; -12207031; -24414062; -24414062; 5800000000; 3000000000; 1100000000; 6265012359;0; 0; 0; 5009049380; 2000133070; 50.090556181887955; 20.001355593224122
6481933; 14038085; 100549316; -18310546; -24414062; -24414062; 5800000000; 3000000000; 1200000000; 6265012359;0; 0; 0; 5009049350; 2000133139; 50.090556181887955; 20.001355593224122
6469726; 13977050; 100573730; -12207031; -30517578; -24414062; 5800000000; 3000000000; 1100000000; 6265012359;0; 0; 0; 5009049350; 2000133139; 50.090556181887955; 20.001355593224122
6494140; 13916015; 100537109; -12207031; -30517578; -24414062; 5800000000; 3000000000; 1100000000; 6265012359;0; 0; 0; 5009049320; 2000133250; 50.090556181887955; 20.001355593224122
6420898; 13952636; 100512695; 0; -36621093; -24414062; 5700000000; 3000000000; 1100000000; 6224145889;0; 0; 0; 5009049320; 2000133250; 50.090556181887955; 20.001355593224122
6506347; 13989257; 100549316; -12207031; -24414062; -24414062; 5800000000; 3000000000; 1100000000; 6265012359;0; 0; 0; 5009049330; 2000133270; 50.090556181887955; 20.001355593224122
6396484; 13842773; 100488281; 0; -36621093; -24414062; 5800000000; 3000000000; 1100000000; 6265012359;0; 0; 0; 5009049330; 2000133270; 50.090556181887955; 20.001355593224122
6481933; 13891601; 100451660; -6103515; -30517578; -24414062; 5800000000; 3000000000; 1100000000; 6265012359;0; 0; 0; 5009049299; 2000133289; 50.090556181887955; 20.001355593224122
6457519; 13903808; 100549316; -12207031; -30517578; -24414062; 5800000000; 3000000000; 1100000000; 6265012359;0; 0; 0; 5009049299; 2000133289; 50.090556181887955; 20.001355593224122
6396484; 14001464; 100537109; -12207031; -24414062; -30517578; 5800000000; 3000000000; 1100000000; 6265012359;0; 0; 0; 5009049330; 2000133319; 50.090556181887955; 20.001355593224122
6506347; 13964843; 100463867; -12207031; -24414062; -30517578; 5800000000; 3000000000; 1100000000; 6265012359;0; 0; 0; 5009049330; 2000133319; 50.090556181887955; 20.001355593224122
6542968; 13940429; 100488281; -12207031; -30517578; -24414062; 5800000000; 3000000000; 1100000000; 6265012359;0; 0; 0; 5009049340; 2000133340; 50.090556181887955; 20.001355593224122
6408691; 13818359; 100524902; -12207031; -36621093; -24414062; 5800000000; 3000000000; 1100000000; 6265012359;0; 0; 0; 5009049340; 2000133340; 50.090556181887955; 20.001355593224122
6420898; 13916015; 100427246; -6103515; -42724609; -24414062; 5800000000; 3000000000; 1100000000; 6265012359;0; 0; 0; 5009049359; 2000133349; 50.090556181887955; 20.001355593224122
6494140; 13989257; 100561523; -12207031; -24414062; -30517578; 5800000000; 3000000000; 1100000000; 6265012359;0; 0; 0; 5009049359; 2000133349; 50.090556181887955; 20.001355593224122
6433105; 14038085; 100561523; -12207031; -24414062; -24414062; 5800000000; 3000000000; 1000000000; 6265012359;0; 0; 0; 5009049370; 2000133340; 50.090556181887955; 20.001355593224122
6457519; 13964843; 100573730; -6103515; -30517578; -24414062; 5800000000; 3000000000; 1100000000; 6265012359;0; 0; 0; 5009049370; 2000133340; 50.090556181887955; 20.001355593224122
6359863; 13903808; 100573730; -12207031; -30517578; -24414062; 5800000000; 3000000000; 1100000000; 6265012359;0; 0; 0; 5009049419; 2000133310; 50.090556181887955; 20.001355593224122
6335449; 14001464; 100512695; -12207031; -30517578; -24414062; 5800000000; 3000000000; 1100000000; 6265012359;0; 0; 0; 5009049419; 2000133310; 50.090556181887955; 20.001355593224122
6506347; 14013671; 100463867; -12207031; -24414062; -24414062; 5800000000; 3000000000; 1100000000; 6265012359;0; 0; 0; 5009049450; 2000133220; 50.090556181887955; 20.001355593224122
6457519; 13940429; 100476074; 0; -24414062; -30517578; 5800000000; 3000000000; 1100000000; 6265012359;0; 0; 0; 5009049450; 2000133220; 50.090556181887955; 20.001355593224122
6518554; 13977050; 100524902; -6103515; -24414062; -30517578; 5800000000; 3000000000; 1100000000; 6265012359;0; 0; 0; 5009049450; 2000133229; 50.090556181887955; 20.001355593224122
6433105; 13891601; 100512695; 6103515; -36621093; -30517578; 5800000000; 3000000000; 1100000000; 6265012359;0; 0; 0; 5009049450; 2000133229; 50.090556181887955; 20.001355593224122
6420898; 14001464; 100488281; -12207031; -30517578; -24414062; 5800000000; 3000000000; 1100000000; 6265012359;0; 0; 0; 5009049470; 2000133180; 50.090556181887955; 20.001355593224122
6408691; 13916015; 100476074; 0; -36621093; -24414062; 5800000000; 3000000000; 1100000000; 6265012359;0; 0; 0; 5009049470; 2000133180; 50.090556181887955; 20.001355593224122
6494140; 13928222; 100415039; -12207031; -24414062; -30517578; 5800000000; 3000000000; 1100000000; 6265012359;0; 0; 0; 5009049479; 2000133070; 50.090556181887955; 20.001355593224122
6433105; 13940429; 100524902; -12207031; -30517578; -24414062; 5800000000; 3000000000; 1100000000; 6265012359;0; 0; 0; 5009049479; 2000133070; 50.090556181887955; 20.001355593224122
6420898; 13903808; 100500488; -18310546; -36621093; -30517578; 5800000000; 3000000000; 1100000000; 6265012359;0; 0; 0; 5009049520; 2000133010; 50.090556181887955; 20.001355593224122
6530761; 13940429; 100512695; -18310546; -24414062; -24414062; 5800000000; 3000000000; 1100000000; 6265012359;0; 0; 0; 5009049520; 2000133010; 50.090556181887955; 20.001355593224122
6445312; 13952636; 100549316; -12207031; -36621093; -24414062; 5900000000; 3000000000; 1100000000; 6304782104;0; 0; 0; 5009049570; 2000132820; 50.090556181887955; 20.001355593224122
6469726; 13940429; 100573730; -12207031; -30517578; -24414062; 5800000000; 3000000000; 1100000000; 6265012359;0; 0; 0; 5009049570; 2000132820; 50.090556181887955; 20.001355593224122
6481933; 13989257; 100512695; 0; -30517578; -24414062; 5800000000; 3000000000; 1100000000; 6265012359;0; 0; 0; 5009049630; 2000132659; 50.090556181887955; 20.001355593224122
6494140; 13867187; 100488281; -6103515; -30517578; -30517578; 5800000000; 3000000000; 1100000000; 6265012359;0; 0; 0; 5009049630; 2000132659; 50.090556181887955; 20.001355593224122
6481933; 13928222; 100549316; -6103515; -30517578; -30517578; 5800000000; 3000000000; 1100000000; 6265012359;0; 0; 0; 5009049700; 2000132510; 50.090556181887955; 20.001355593224122
6481933; 13916015; 100439453; -6103515; -30517578; -24414062; 5800000000; 3000000000; 1100000000; 6265012359;0; 0; 0; 5009049700; 2000132510; 50.09062891433195; 20.001295950811194
6506347; 13903808; 100439453; -12207031; -24414062; -24414062; 5800000000; 3000000000; 1100000000; 6265012359;0; 0; 0; 5009049740; 2000132360; 50.09062891433195; 20.001295950811194
