ax; ay; az; gx; gy; gz; lat; lon
-12806; -7481; 6106; 3044; 11860; -16574; 50.08394265783542; 19.993167523180073
1917; -28615; 1680; -26152; -7907; 29956; 50.08394265783542; 19.993167523180073
-31498; -82; 28536; -15052; -3192; 9429; 50.083726783049634; 19.992990450128097
-14409; 24332; -16248; -11099; -28435; 26002; 50.083726783049634; 19.992990450128097
12447; 13345; -22352; 15813; 20527; 29195; 50.083726783049634; 19.992990450128097
16109; -18011; 3283; 24481; -20527; 28435; 50.083726783049634; 19.992990450128097
-7084; 31656; 9387; -32388; 24481; 7907; 50.083726783049634; 19.992990450128097
-13188; -27395; 6563; -21289; -24481; 32388; 50.083726783049634; 19.992990450128097
-3422; 27919; 28154; 26764; -27673; 28435; 50.083726783049634; 19.992990450128097
-27147; -1228; 28993; 17648; -11392; 17188; 50.083726783049634; 19.992990450128097
-292; -1386; 29757; -24464; -15352; 19152; 50.083726783049634; 19.992990450128097
14506; 26848; 3740; 6528; -7292; -9568; 50.083726783049634; 19.992990450128097
-29738; 6710; -19835; 28992; 7907; 30880; 50.08364220911305; 19.992910121819563
-31731; 19074; 8091; 320; -14440; -28272; 50.08364220911305; 19.992910121819563
-10132; 19082; 3358; 1696; -25072; -25984; 50.08364220911305; 19.992910121819563
28415; 8679; -17461; -25792; -32064; -26432; 50.08364220911305; 19.992910121819563
10794; 8139; -27077; -17472; 5312; 20064; 50.08364220911305; 19.992910121819563
32368; -9324; -6707; 31040; -30568; -16280; 50.08364220911305; 19.992910121819563
24347; -240; -1982; 10112; -18096; -14736; 50.08364220911305; 19.992910121819563
1477; 23760; 25422; 14464; 28032; 26176; 50.08364220911305; 19.992910121819563
24280; 19417; 6505; -32; 26784; -21088; 50.08364220911305; 19.992910121819563
-22638; -12113; 1713; 30544; -11560; -22958; 50.08361821618765; 19.992904360386184
31506; -11606; -22942; 8224; 14584; -12576; 50.08361821618765; 19.992904360386184
-2351; 27871; 23354; -21824; 3936; -1056; 50.08361821618765; 19.992904360386184
30884; -30856; 15880; 27504; -21152; -14016; 50.08361821618765; 19.992904360386184
-2252; 18535; 2976; 8080; -26912; -18096; 50.08361821618765; 19.992904360386184
21591; 24324; 6713; -27376; -31920; -14208; 50.08361821618765; 19.992904360386184
-14199; -15893; -27317; 23104; -3340; -3776; 50.08361821618765; 19.992904360386184
-18610; -29191; 28993; 12472; 31480; -1984; 50.08361821618765; 19.992904360386184
-19299; -18235; -611; -30400; -9136; -8496; 50.08361821618765; 19.992904360386184
-5040; -18610; -8999; -16574; 296; -10368; 50.08360893118514; 19.992890565644
30293; 3572; -24328; -8352; -20380; 24608; 50.08360893118514; 19.992890565644
13570; -28765; -9164; -13408; 23280; 20064; 50.08360893118514; 19.992890565644
-16925; 28474; 9272; -26592; 10656; -21152; 50.08360893118514; 19.992890565644
-22788; -19330; -11499; 5504; 22224; -16608; 50.08360893118514; 19.992890565644
-13620; -24371; 14668; -4688; -11808; 6848; 50.08360893118514; 19.992890565644
-6387; 12656; -1143; -6944; 8368; 8352; 50.08360893118514; 19.992890565644
16739; 29273; -18275; -7616; -2256; -17760; 50.08359225241403; 19.992893456548614
20925; 10447; -12952; 11408; 23520; -13248; 50.08359225241403; 19.992893456548614
-14700; 7001; 6878; 14440; -6240; -928; 50.08359225241403; 19.992893456548614
9474; -28765; -18225; -21289; 1968; 22810; 50.08359225241403; 19.992893456548614
13908; 6021; -1667; -13382; -15520; 24656; 50.08359225241403; 19.992893456548614
2914; -31596; -16481; -6976; -21752; 20352; 50.08359225241403; 19.992893456548614
16491; 25785; -26553; -21904; -9429; -6088; 50.08359225241403; 19.992893456548614
-21426; -28997; 11911; 17776; 17484; 7440; 50.08358602174102; 19.99287128605487
7639; -4209; -24718; 20080; -3044; 26592; 50.08358602174102; 19.99287128605487
-17846; -82; 4429; 15520; -4714; -29824; 50.08358602174102; 19.99287128605487
-4875; 9376; 11820; 14608; -21289; 24928; 50.08358602174102; 19.99287128605487
-682; 31199; -16780; -3968; 9429; -3954; 50.08358602174102; 19.99287128605487
23815; 30593; -2604; -6088; 23720; -13532; 50.08358602174102; 19.99287128605487
-31116; 6943; 18770; -16160; 3192; -28584; 50.08358602174102; 19.99287128605487
24430; 4658; 12816; -12008; 18392; 17188; 50.083586327362845; 19.992845946625412
-30809; 16925; 28237; -30528; -29656; -18544; 50.083586327362845; 19.992845946625412
-15023; -16491; -1450; 17504; 20527; -31936; 50.083586327362845; 19.992845946625412
-18685; 18004; -14571; 18712; 31626; 12160; 50.083586327362845; 19.992845946625412
9316; 25552; -2820; 7292; 26002; 31920; 50.083586327362845; 19.992845946625412
24804; -32128; 12060; 22810; 29195; -24184; 50.083586327362845; 19.992845946625412
21756; -12904; 22200; 2284; 4714; 1816; 50.083586327362845; 19.992845946625412
17629; -9316; 13049; 12920; 23572; 27208; 50.083586327362845; 19.992845946625412
-24025; 20288; 26484; 16280; -5624; 7760; 50.083590013436954; 19.992814140935476
10380; 4560; 17392; 5176; 22050; 13248; 50.083590013436954; 19.992814140935476
-12499; 6927; -15933; -13232; 22958; 8976; 50.083590013436954; 19.992814140935476
-20288; -5513; 15175; 10656; -15813; -26296; 50.083590013436954; 19.992814140935476
-23186; 3422; 14195; -13232; -5476; 6704; 50.083590013436954; 19.992814140935476
-7541; -6875; 28918; -14904; 15813; 13848; 50.083590013436954; 19.992814140935476
25717; -3902; 10765; -8667; -9576; 26002; 50.083590013436954; 19.992814140935476
-28825; 21874; -12503; 25920; 25536; -24628; 50.083590013436954; 19.992814140935476
16259; 9219; -29270; 22976; -14292; -4272; 50.083591179830876; 19.992788636215156
-30435; 31100; 12774; 27264; -23104; 5008; 50.083591179830876; 19.992788636215156
-15862; 29025; -18166; -9568; -6384; -31040; 50.083591179830876; 19.992788636215156
-22729; -14514; -18989; -192; -4714; -26784; 50.083591179830876; 19.992788636215156
-8155; -17893; 22408; -11232; -9872; -29195; 50.083591179830876; 19.992788636215156
30990; -18550; 21495; -9856; 16872; 480; 50.083591179830876; 19.992788636215156
862; -18791; 12899; 14016; 31920; 10656; 50.08359883504348; 19.992765459759926
15420; -3229; 8190; -10816; -22958; -22816; 50.08359883504348; 19.992765459759926
-17622; -26639; 1298; -7776; 14440; 7888; 50.08359883504348; 19.992765459759926
-8695; -20153; -3360; -29195; -4714; 32688; 50.08359883504348; 19.992765459759926
22437; 16618; -18764; -6064; -31480; 11712; 50.08359883504348; 19.992765459759926
14656; -9100; -20284; 26320; -20380; 6236; 50.08359883504348; 19.992765459759926
-15480; -20551; 26551; -21436; -7907; 23720; 50.08359883504348; 19.992765459759926
-29746; 23170; -14023; 10512; -8520; -24332; 50.08359883504348; 19.992765459759926
5272; 29805; -29676; 23136; -4714; 29195; 50.08359883504348; 19.992765459759926
1685; 276; -24718; 13992; 20527; -26152; 50.08360960778954; 19.99274040329429
3288; 27970; 9777; 24032; -16574; -11248; 50.08360960778954; 19.99274040329429
-32345; 23236; 12135; 12160; 31480; -7292; 50.08360960778954; 19.99274040329429
-14716; 29954; -22966; 19916; 29956; 15376; 50.08360960778954; 19.99274040329429
4359; -23001; 10997; -20527; 22958; 2728; 50.08360960778954; 19.99274040329429
-1760; 3032; 3433; -17536; -8816; -21289; 50.08360960778954; 19.99274040329429
2906; -18633; 28910; 26320; -17632; -3168; 50.08360960778954; 19.99274040329429
19771; -4142; 15573; -3488; -29344; 8832; 50.083621894510095; 19.992720043407548
-24789; -23367; 4130; -18712; 15813; 7760; 50.083621894510095; 19.992720043407548
-18602; -9258; -22501; 15960; -11860; 7584; 50.083621894510095; 19.992720043407548
17015; 16543; 26933; -12784; -14292; 3024; 50.083621894510095; 19.992720043407548
18086; -29080; -6250; -10016; -2432; -7584; 50.083621894510095; 19.992720043407548
-4493; -11467; 23114; 28752; 7907; -5768; 50.083621894510095; 19.992720043407548
-26391; 12881; 12226; -2912; -27673; 13072; 50.083621894510095; 19.992720043407548
-1670; -173; -31586; -8320; 26152; -8368; 50.083621894510095; 19.992720043407548
13053; -9698; -18516; -2944; -8520; -1816; 50.08362974887917; 19.99269715934936
-2965; -31305; -30814; -29648; 12621; -19472; 50.08362974887917; 19.99269715934936
-28069; 22697; -23962; -20672; -7292; 9576; 50.08362974887917; 19.99269715934936
-6702; 1961; -7554; -3136; 8816; -23720; 50.08362974887917; 19.99269715934936
-31880; -15984; 2594; -13504; -21904; 5476; 50.08362974887917; 19.99269715934936
17255; -23383; 26650; -14912; -18244; 24032; 50.08362974887917; 19.99269715934936
20070; -5903; -15102; 9856; 17944; -23868; 50.08364219775857; 19.992667543220854
16117; 11652; -20383; -29488; 22198; 908; 50.08364219775857; 19.992667543220854
31057; -22611; 25737; -29536; 26912; -24332; 50.08364219775857; 19.992667543220854
3063; 21036; -3974; -14736; 24332; -31936; 50.08364219775857; 19.992667543220854
20760; -12605; -1375; 21024; 31776; 30424; 50.08364219775857; 19.992667543220854
-13719; 17000; -26238; -20864; 15664; 20676; 50.08364219775857; 19.992667543220854
32585; 28202; -20965; -29824; 11712; -15664; 50.08364219775857; 19.992667543220854
19007; 29356; 16695; 10190; 27820; 16574; 50.08364219775857; 19.992667543220854
-7624; 17074; -24636; -29376; -8520; 11696; 50.08364219775857; 19.992667543220854
26099; 29041; -11432; -16288; -148; -19024; 50.08364219775857; 19.992667543220854
23651; 20579; 17558; -28112; -7907; 31792; 50.08365826204603; 19.99264144933852
-10754; 7068; -21804; 10952; 29048; -1360; 50.08365826204603; 19.99264144933852
32045; -22410; -3111; -5008; 13992; -23720; 50.08365826204603; 19.99264144933852
25260; -11467; 12990; -12000; 22958; 3656; 50.08365826204603; 19.99264144933852
-29439; -18366; 23421; -12328; -8200; 28136; 50.08365826204603; 19.99264144933852
8785; 5142; -18673; 16864; -29195; 24928; 50.08365826204603; 19.99264144933852
27245; 25694; -17228; -16424; -3192; -22512; 50.08365826204603; 19.99264144933852
-10664; 6139; 28993; -14880; -6088; 24184; 50.08365826204603; 19.99264144933852
10388; 7584; -28979; 2688; 6848; -6680; 50.083669958740415; 19.992616694097247
-22198; -8203; 8871; 7312; -9600; 10016; 50.083669958740415; 19.992616694097247
17479; 4170; -8310; 27504; -7608; -14176; 50.083669958740415; 19.992616694097247
7324; 13463; -10128; -29195; 19472; -27360; 50.083669958740415; 19.992616694097247
-10589; 19791; 14120; -24288; 2896; -22176; 50.083669958740415; 19.992616694097247
-28435; -21166; -22576; 15960; -15200; -2112; 50.083669958740415; 19.992616694097247
-21733; 29482; 32513; 14272; 24628; 1504; 50.083669958740415; 19.992616694097247
-10597; 4776; 8174; -16160; 23720; 27208; 50.083669958740415; 19.992616694097247
-24780; 31806; -15992; -14904; -30400; -13184; 50.08368741633661; 19.992597577340963
25268; -14090; 4354; -21024; -5476; -4128; 50.08368741633661; 19.992597577340963
-18079; 8455; 25862; 2896; 7760; -2284; 50.08368741633661; 19.992597577340963
17704; -11774; 19326; -17344; 17632; -30272; 50.08368741633661; 19.992597577340963
-25785; -21083; 16545; -10338; -28435; -23572; 50.08368741633661; 19.992597577340963
-16086; 7832; 25339; -12621; -20527; -19767; 50.08368741633661; 19.992597577340963
-17389; 10730; 20448; -22198; 22198; 17776; 50.08368741633661; 19.992597577340963
-6028; -17255; -9522; -16320; 5176; 18244; 50.08370436248417; 19.992570003166886
-26840; -9955; 24161; 8080; -31016; -27820; 50.08370436248417; 19.992570003166886
17247; -12695; -5021; -28584; -4568; 6384; 50.08370436248417; 19.992570003166886
8096; 5623; 2070; 15352; 6996; -7608; 50.08370436248417; 19.992570003166886
32734; 2410; -25325; -30704; 22958; 7760; 50.08370436248417; 19.992570003166886
17853; 26525; 19850; -3968; -8667; 20232; 50.08370436248417; 19.992570003166886
-13885; -14298; -28979; -11328; -28584; 12621; 50.08370436248417; 19.992570003166886
30376; 12408; -28754; -29472; -3804; 23888; 50.08370436248417; 19.992570003166886
6036; -18118; -28298; -18272; -14142; -13408; 50.08371699173742; 19.99255159904853
-17165; -8876; 4744; -30718; -30568; 30544; 50.08371699173742; 19.99255159904853
5422; -25741; -7471; -13532; 8056; -22664; 50.08371699173742; 19.99255159904853
-25096; 19649; 12285; -29488; -31480; 8667; 50.08371699173742; 19.99255159904853
5347; 16602; 11446; -23584; 25392; 24160; 50.08371699173742; 19.99255159904853
30675; 13172; 14494; 19916; 31480; 23572; 50.08371699173742; 19.99255159904853
23126; -13609; 16187; 15504; 9280; 24032; 50.08371699173742; 19.99255159904853
-15480; 13703; 9320; 26002; -22198; -25680; 50.08373181431468; 19.99252937048837
15345; 6446; 2370; -31920; -19006; 23424; 50.08373181431468; 19.99252937048837
19232; 28427; 18330; -31184; -612; 20976; 50.08373181431468; 19.99252937048837
-19756; 1953; -31121; -6996; 7907; 3954; 50.08373181431468; 19.99252937048837
4201; 14392; -24569; -2400; -24481; -448; 50.08373181431468; 19.99252937048837
14357; -25143; -24013; -21728; -13382; 7292; 50.08373181431468; 19.99252937048837
-21897; -25749; -22261; 14142; -4714; 2728; 50.08373181431468; 19.99252937048837
-24099; 14534; 9627; -15052; 5476; 19304; 50.08373181431468; 19.99252937048837
4733; 1256; -4340; 20232; -24332; -7608; 50.08373181431468; 19.99252937048837
-28533; 22406; -22095; 25092; -31480; -29504; 50.083749997707834; 19.992507323777744
-23882; -16838; 25248; -24032; -2576; 13848; 50.083749997707834; 19.992507323777744
921; -8585; -16531; 21904; 12621; 2136; 50.083749997707834; 19.992507323777744
464; -10337; -24462; 16096; 9136; 22664; 50.083749997707834; 19.992507323777744
-24789; 29674; -4116; 21952; -25392; 7456; 50.083749997707834; 19.992507323777744
-24025; -5911; -4009; 20192; 5624; 26752; 50.083749997707834; 19.992507323777744
22362; -15909; -28065; 31312; 25392; 31312; 50.083749997707834; 19.992507323777744
6867; 8048; 9154; -29792; 6536; 31328; 50.083749997707834; 19.992507323777744
-150; 26509; -26230; -8496; 28136; -20512; 50.08376619253509; 19.99248951416578
-19831; 7359; 21161; 8800; 22810; -296; 50.08376619253509; 19.99248951416578
-524; -3170; -16315; -10512; -29344; -17484; 50.08376619253509; 19.99248951416578
-25552; -31628; 12833; -29956; 21436; 13216; 50.08376619253509; 19.99248951416578
24953; -4391; -14480; -4714; 7907; -2284; 50.08376619253509; 19.99248951416578
28158; 27040; 18861; 3804; 2728; 10632; 50.08376619253509; 19.99248951416578
27544; 6753; -20733; 5760; 6536; -29984; 50.08376619253509; 19.99248951416578
-15562; 29564; 5882; 5920; -5328; -32088; 50.08376619253509; 19.99248951416578
-23568; 15514; -745; 29956; -30866; -21289; 50.08378255620058; 19.992470099069934
-225; -6683; -2879; 9872; -30866; 10952; 50.08378255620058; 19.992470099069934
8096; -28423; -28140; -12768; 9429; 26764; 50.08378255620058; 19.992470099069934
-24407; -9415; -14787; 12352; 15376; -1522; 50.08378255620058; 19.992470099069934
-6860; -18275; -29062; 3360; 10040; 6996; 50.08378255620058; 19.992470099069934
-12507; -27966; -8376; 27968; 11860; -14142; 50.08378255620058; 19.992470099069934
23583; -23540; 7934; 18112; 13382; -32536; 50.08379709959763; 19.992445956406947
-27230; -10802; -17918; -28112; 21584; 908; 50.08379709959763; 19.992445956406947
19921; 27123; -19736; -2752; 13532; -25092; 50.08379709959763; 19.992445956406947
-6860; 24374; 1306; -22958; 13382; 11860; 50.08379709959763; 19.992445956406947
19232; -31471; -20965; 8800; 12768; -8224; 50.08379709959763; 19.992445956406947
-4576; 2252; -9464; -5768; 11860; -3954; 50.08379709959763; 19.992445956406947
-29289; 29564; -8293; -7456; -17188; -14142; 50.083807712253176; 19.992424948956476
32435; -16058; 28851; -1816; 28284; 14904; 50.083807712253176; 19.992424948956476
15113; 5831; 5425; -10016; -29195; -2576; 50.083807712253176; 19.992424948956476
3744; 7442; 20306; 13992; -22958; -9429; 50.083807712253176; 19.992424948956476
-150; 12093; 31990; -7200; -21289; 5152; 50.083807712253176; 19.992424948956476
1835; 23602; 7178; 9280; -761; -761; 50.083807712253176; 19.992424948956476
-17157; 14011; -2049; 12160; -7146; -3044; 50.083807712253176; 19.992424948956476
8403; -23009; -30432; -13680; -3340; -6064; 50.083807712253176; 19.992424948956476
18850; 7717; -4266; -1344; -30104; 21600; 50.083807712253176; 19.992424948956476
19846; -31687; -24005; 16832; 29048; -3804; 50.08382225123414; 19.992403046034795
10761; -12778; -23423; -30848; -8056; 10656; 50.08382225123414; 19.992403046034795
-9908; 5225; -454; -23424; -15052; 24332; 50.08382225123414; 19.992403046034795
-15023; -30474; -1883; -24960; -21436; 2432; 50.08382225123414; 19.992403046034795
-16551; 27115; -28073; -23256; 31626; -2136; 50.08382225123414; 19.992403046034795
8777; 31781; -11956; 4400; -14752; -160; 50.08382225123414; 19.992403046034795
-23643; 20023; -30440; -11408; -7292; 11099; 50.08382225123414; 19.992403046034795
-30360; 10108; -25009; 24628; -27524; 6384; 50.08382225123414; 19.992403046034795
29836; -8120; 30387; -908; 10952; -22050; 50.08382225123414; 19.992403046034795
14806; 7343; 27863; -3804; -10952; -10488; 50.083836544243326; 19.992376328482965
-27462; -26438; -28971; -7888; 31776; -6996; 50.083836544243326; 19.992376328482965
-1828; -31404; 1763; 16724; -16574; 29195; 50.083836544243326; 19.992376328482965
-30668; 15290; -23174; -28320; -761; 19916; 50.083836544243326; 19.992376328482965
-16326; 29490; 8332; -15664; 6384; 26152; 50.083836544243326; 19.992376328482965
-25096; -3395; 27248; -29808; -19916; 3360; 50.083836544243326; 19.992376328482965
22055; -31471; 8714; -31328; -29344; -5768; 50.083836544243326; 19.992376328482965
-31124; -26812; -31960; -15200; -16574; -27820; 50.083836544243326; 19.992376328482965
17629; -25592; -13582; 9264; -27064; -16724; 50.083836544243326; 19.992376328482965
15196; 24540; -11897; -14608; -3340; -23868; 50.083849632277094; 19.99234954327585
9167; -3477; -7372; 18544; -24032; 18832; 50.083849632277094; 19.99234954327585
-1371; 6238; -1001; -17472; 19304; -28284; 50.083849632277094; 19.99234954327585
15196; 6304; -28680; -1968; 6088; 14142; 50.083849632277094; 19.99234954327585
-29215; -31877; 16022; -15216; 1522; -28136; 50.083849632277094; 19.99234954327585
-7856; 8521; 16436; -29824; -1984; 27200; 50.083849632277094; 19.99234954327585
15188; 17889; 18821; -21888; -2576; -7292; 50.083849632277094; 19.99234954327585
18700; 6603; -12818; 7616; 11560; 17648; 50.083849632277094; 19.99234954327585
19846; -30707; 4670; -5328; -25680; 26928; 50.083849632277094; 19.99234954327585
4434; -6517; -2414; 19472; -24481; 26002; 50.083863421891394; 19.992325631322103
17704; -14256; -26014; 19620; -30104; 24184; 50.083863421891394; 19.992325631322103
20070; -16523; -31113; -31040; -14292; 13848; 50.083863421891394; 19.992325631322103
-14948; -16889; -9589; 15040; 21140; 12328; 50.083863421891394; 19.992325631322103
4508; -27202; -7396; -15216; 19006; -1968; 50.083863421891394; 19.992325631322103
4591; 2020; 28245; 4768; 27064; 21289; 50.083863421891394; 19.992325631322103
14731; -4615; -8152; -30256; -1984; -320; 50.083863421891394; 19.992325631322103
-12581; 1264; -14405; -21584; 16724; 31016; 50.083863421891394; 19.992325631322103
-3198; -953; -9456; -29648; 32536; 32688; 50.083863421891394; 19.992325631322103
-27687; 5607; 19310; -24800; 17484; -26464; 50.083863421891394; 19.992325631322103
-18843; -14838; 20074; 10112; 5920; 2720; 50.083873225110175; 19.992307241171773
16551; 22173; -24943; -23888; -2432; -13992; 50.083873225110175; 19.992307241171773
-6785; 11120; -10983; -6536; -23104; -6528; 50.083873225110175; 19.992307241171773
17172; 21185; -31877; 3340; -148; -3044; 50.083873225110175; 19.992307241171773
31513; -18716; -2738; -26464; 19767; 26448; 50.083873225110175; 19.992307241171773
26249; 16078; 26642; -16724; 22198; -1376; 50.083873225110175; 19.992307241171773
4501; 23851; -22966; 10352; 30718; -30400; 50.083873225110175; 19.992307241171773
22130; -13377; -6250; -12160; -12008; 8672; 50.0838858628201; 19.99228850454196
-20902; 14235; 12667; 29344; 28435; 28584; 50.0838858628201; 19.99228850454196
-26549; 19043; 32048; 23424; -12621; 8368; 50.0838858628201; 19.99228850454196
14274; 25910; -3801; 23280; -16574; 8368; 50.0838858628201; 19.99228850454196
21374; 21775; -18839; -10656; -16574; 4568; 50.0838858628201; 19.99228850454196
-20670; 15447; 5666; 23408; -5476; -5176; 50.0838858628201; 19.99228850454196
13809; 3182; -1434; -15552; 11099; -15376; 50.08390578774596; 19.99226366551167
11451; 13230; 3515; -25952; -12920; 28448; 50.08390578774596; 19.99226366551167
2681; 29572; -5868; 8968; 6996; 27840; 50.08390578774596; 19.99226366551167
-18453; -17661; 31442; -18272; -11099; 26616; 50.08390578774596; 19.99226366551167
11218; 20496; 27257; -32088; -18096; -5476; 50.08390578774596; 19.99226366551167
21748; 4619; -4722; -18392; 29344; 28112; 50.08390578774596; 19.99226366551167
-607; -14149; -32724; -29195; 2728; 17472; 50.08390578774596; 19.99226366551167
-10223; -8494; 1539; -21904; -25092; -31792; 50.08390578774596; 19.99226366551167
-914; 2800; -13342; -15520; 20527; 15052; 50.08390578774596; 19.99226366551167
8245; 1422; 28386; 30880; 12621; 28896; 50.08391598039889; 19.99224002063351
-16700; 24009; -28597; -26464; -16724; -24944; 50.08391598039889; 19.99224002063351
-13653; 3323; -32192; -28728; 26912; -18096; 50.08391598039889; 19.99224002063351
-14491; 8821; 15341; -3192; -11712; -24332; 50.08391598039889; 19.99224002063351
-10140; -28108; 21668; 5328; -2432; 29956; 50.08391598039889; 19.99224002063351
23276; -15668; 16802; -8832; -29956; 30256; 50.08391598039889; 19.99224002063351
-75; -22843; -10983; 12008; -16424; 15504; 50.08391598039889; 19.99224002063351
7781; -20551; 13439; -9600; -28584; -3340; 50.08391598039889; 19.99224002063351
19763; -25816; -29593; 296; -8056; 31792; 50.08393052246687; 19.99222017257628
25568; 10647; -25092; -19136; -14292; -13968; 50.08393052246687; 19.99222017257628
10462; -13459; -23647; -1522; -17484; 23868; 50.08393052246687; 19.99222017257628
-20677; -32384; 31517; -27072; 7146; -13382; 50.08393052246687; 19.99222017257628
-23800; 3398; 27323; 13232; 1522; 17944; 50.08393052246687; 19.99222017257628
-23875; 16369; 23354; -320; -23104; 320; 50.08393052246687; 19.99222017257628
20685; 28418; -32558; -12920; 13532; -19472; 50.08393052246687; 19.99222017257628
19539; -25517; -20292; 14904; 12768; 5920; 50.08393052246687; 19.99222017257628
28001; 8439; -26155; 9408; -1522; 21584; 50.08393052246687; 19.99222017257628
20527; 30943; 15955; -736; -27524; -16872; 50.083940840437755; 19.992195117642154
-1902; -29029; 22665; -28284; 8667; -27673; 50.083940840437755; 19.992195117642154
29222; 22937; -9888; -18272; -6996; -29808; 50.083940840437755; 19.992195117642154
-31588; 3382; -12362; 19304; 2432; 32388; 50.083940840437755; 19.992195117642154
-21284; -26123; -5545; 31016; -21752; -5504; 50.083940840437755; 19.992195117642154
2449; 26824; 9162; 24656; 6088; 10512; 50.083940840437755; 19.992195117642154
13734; -4997; 14817; 4568; 31776; -30718; 50.083940840437755; 19.992195117642154
-7699; -29187; 2818; 31552; 4714; 4714; 50.083940840437755; 19.992195117642154
-11900; -19870; -11731; 9536; 16574; 23720; 50.083940840437755; 19.992195117642154
22512; 13164; -14247; 27968; -23572; -2896; 50.083954262509955; 19.992172776928296
16633; 14002; -28987; 11712; -12621; -19152; 50.083954262509955; 19.992172776928296
11143; -6982; 30528; 612; -2432; 28136; 50.083954262509955; 19.992172776928296
-16476; 26666; -1824; -16112; -20527; -24628; 50.083954262509955; 19.992172776928296
21216; -29561; -24934; -30866; 32388; -15052; 50.083954262509955; 19.992172776928296
-23800; -24454; 7493; -21140; -17335; 3954; 50.083954262509955; 19.992172776928296
-30286; -12247; -22344; 17632; 9429; -14440; 50.083954262509955; 19.992172776928296
19464; -17744; 4055; 7584; 8667; -11099; 50.083954262509955; 19.992172776928296
1453; -2556; 27863; 27968; 23104; 29024; 50.08396804248555; 19.99215015242376
14880; -25210; -603; 31776; -16424; -18560; 50.08396804248555; 19.99215015242376
-11900; -13459; -16697; 10190; -7146; -2896; 50.08396804248555; 19.99215015242376
22279; -28191; -17303; -27840; 17944; 464; 50.08396804248555; 19.99215015242376
24646; 27580; 16503; 15813; 25092; -28896; 50.08396804248555; 19.99215015242376
-10065; -4773; -1293; -12448; 10952; -21289; 50.08396804248555; 19.99215015242376
5347; -26131; 17002; -19304; 13382; -17800; 50.08396804248555; 19.99215015242376
31131; 13404; -10601; -20544; -6384; 7760; 50.08396804248555; 19.99215015242376
31814; -2091; -19985; 22810; 30424; -26144; 50.08396804248555; 19.99215015242376
4816; -2398; 15041; -2720; 23424; 7920; 50.08398286419553; 19.992131524566865
18160; -20575; 21452; -14304; 6088; 27072; 50.08398286419553; 19.992131524566865
8852; -11101; 10017; -16736; -27524; 10632; 50.08398286419553; 19.992131524566865
6028; -10254; -21737; -32240; 4714; -27064; 50.08398286419553; 19.992131524566865
-3655; 9958; -20517; -21600; 9576; 26616; 50.08398286419553; 19.992131524566865
3827; 3548; 24276; -24928; 23104; 20976; 50.08398286419553; 19.992131524566865
11143; 7285; 19767; -5328; 8200; -23744; 50.08398286419553; 19.992131524566865
-12970; -21764; -19138; 18096; 27820; 4688; 50.08398286419553; 19.992131524566865
763; 30029; 8008; -19916; -2432; 18712; 50.08399576917619; 19.99210879468629
11683; 8513; 6040; -4714; 4714; 12472; 50.08399576917619; 19.99210879468629
-27687; -15444; 31442; -1; -1; -1; 50.08399576917619; 19.99210879468629
2291; 25910; 708; 19006; 20676; -6704; 50.08399576917619; 19.99210879468629
-3587; 13014; 4811; -11840; 9576; -9280; 50.08399576917619; 19.99210879468629
-32427; -31471; -14803; 24481; -8667; 30568; 50.08399576917619; 19.99210879468629
-17622; -5604; 7186; 1056; -21584; -17024; 50.08399576917619; 19.99210879468629
-17771; -721; 32513; -29504; 3804; 2752; 50.08399576917619; 19.99210879468629
7174; 31474; 9486; 29648; 29195; -13992; 50.08399576917619; 19.99210879468629
26398; -16374; 15640; 15680; -11099; 3804; 50.08399576917619; 19.99210879468629
6643; -339; -12578; 13968; 15664; 8368; 50.0840094356695; 19.99209149596222
-21508; -13385; -26006; 3044; -11099; 30272; 50.0840094356695; 19.99209149596222
4359; 7517; 14277; -27524; -6848; 12920; 50.0840094356695; 19.99209149596222
3288; 8812; -1442; -27984; -11560; 30848; 50.0840094356695; 19.99209149596222
14417; 4245; 2677; 14736; 27064; 2256; 50.0840094356695; 19.99209149596222
32352; 10274; -15476; 22810; -32388; 15052; 50.0840094356695; 19.99209149596222
-31888; 2957; 25654; 19767; -6236; -7146; 50.0840094356695; 19.99209149596222
19381; 31092; -13275; -4568; -31626; -15813; 50.0840094356695; 19.99209149596222
6335; -32227; 20149; -10656; -26002; -20380; 50.0840094356695; 19.99209149596222
-23036; 4477; 21377; -13408; 9429; -8224; 50.0840094356695; 19.99209149596222
-26398; 2185; -13200; -5328; -17188; -18858; 50.08402259561438; 19.9920693084816
10761; -15436; -16713; 23008; 17632; -15648; 50.08402259561438; 19.9920693084816
2831; 5166; -23182; -18858; -23720; 16424; 50.08402259561438; 19.9920693084816
-11518; -7746; -10211; 5008; 25392; 31920; 50.08402259561438; 19.9920693084816
27162; 25827; -1600; -6384; -26764; 14440; 50.08402259561438; 19.9920693084816
27695; 30644; -7919; 26272; 28435; -26464; 50.08402259561438; 19.9920693084816
19607; 29423; -19371; 2576; -22198; -19767; 50.08402259561438; 19.9920693084816
28615; 19275; -16165; 3504; -32388; -2432; 50.08402259561438; 19.9920693084816
-27155; 2567; -18764; 26928; 5624; -4714; 50.08403739235369; 19.992050820467508
-17315; 10274; -17843; 27360; -18858; 23408; 50.08403739235369; 19.992050820467508
25867; -25816; -16780; -2136; -6236; 21728; 50.08403739235369; 19.992050820467508
-1602; -19862; 16486; -13532; -1522; 1816; 50.08403739235369; 19.992050820467508
-18378; -8112; 3823; 2112; -16574; 1056; 50.08403739235369; 19.992050820467508
-9841; -11624; -24029; -15840; 14142; 12920; 50.08403739235369; 19.992050820467508
26855; -25883; -9912; 4714; -32688; 8224; 50.08403739235369; 19.992050820467508
-27851; -11002; 6713; -4272; 30272; 14016; 50.08403739235369; 19.992050820467508
8777; 27297; 2834; -19168; 8976; -416; 50.08403739235369; 19.992050820467508
-10215; -25650; -29452; -19024; 12784; 15392; 50.084051142803695; 19.992026528289138
22130; -2997; -4191; -9280; 12328; 20384; 50.084051142803695; 19.992026528289138
26780; 7159; -22915; -928; 12328; 6704; 50.084051142803695; 19.992026528289138
32510; 29813; 23728; -5344; -29344; 14608; 50.084051142803695; 19.992026528289138
29761; 18835; 10217; -7292; -5328; 30272; 50.084051142803695; 19.992026528289138
7182; 19283; 13655; 5952; 4248; -24608; 50.084051142803695; 19.992026528289138
-3969; 11270; -18291; 31616; -29195; 9896; 50.084051142803695; 19.992026528289138
30749; -12987; -22950; 4480; 12920; -10632; 50.084051142803695; 19.992026528289138
-28907; -22229; -24644; 19472; 14440; -19904; 50.08406211375526; 19.991999516080668
-20587; -17586; -29053; -26016; 2432; 15520; 50.08406211375526; 19.991999516080668
-30045; -31928; -2962; -17648; -20848; 31296; 50.08406211375526; 19.991999516080668
-20595; -30317; -23108; -11696; 18544; 3340; 50.08406211375526; 19.991999516080668
-20662; 10714; -22958; 20688; -11099; -26152; 50.08406211375526; 19.991999516080668
-27297; -19721; -23415; -20384; 27504; 25952; 50.08406211375526; 19.991999516080668
2899; 4784; 452; -11408; -22050; -29216; 50.08406211375526; 19.991999516080668
8029; -29013; -26396; -11392; -25242; -24184; 50.08406211375526; 19.991999516080668
622; 12333; -27675; -23868; -29048; 9856; 50.08406211375526; 19.991999516080668
-19225; -7805; -20367; 13696; -761; 24608; 50.08406211375526; 19.991999516080668
-25934; 5457; -15185; 14608; -16112; 908; 50.08407550734598; 19.991981571994682
10313; -18425; -29361; 25242; 13992; -17040; 50.08407550734598; 19.991981571994682
15495; -7364; 22673; 11099; -22640; -26448; 50.08407550734598; 19.991981571994682
25036; -30864; -9680; -26152; -23256; -32388; 50.08407550734598; 19.991981571994682
-7092; 3556; 21751; 8800; -3168; 4880; 50.08407550734598; 19.991981571994682
9498; -29345; 8788; -13504; -9088; 24384; 50.08407550734598; 19.991981571994682
27438; 28817; -22087; 31904; -16400; 14608; 50.084096854752886; 19.991971475512823
-29215; -6234; 292; 32640; -30704; 11232; 50.084096854752886; 19.991971475512823
-20240; 29888; 3740; 4544; -27820; -296; 50.084096854752886; 19.991971475512823
-10356; 3083; 12758; 25092; -15960; -27040; 50.084096854752886; 19.991971475512823
15212; -2564; -7297; 9408; 28752; 20256; 50.084096854752886; 19.991971475512823
-7226; -1784; -24096; 6976; -12160; 320; 50.084096854752886; 19.991971475512823
-13554; -24985; 13912; 12920; 1670; 32400; 50.084096854752886; 19.991971475512823
-28170; -20418; -13475; -64; -13216; 19792; 50.084096854752886; 19.991971475512823
-30120; 28119; -587; -6536; -29760; 31808; 50.08410544211672; 19.9919528419283
-22988; 22216; 26268; 4224; 9920; 3712; 50.08410544211672; 19.9919528419283
-17133; 32396; 16818; -20544; -30016; 13248; 50.08410544211672; 19.9919528419283
22619; -11444; -1036; -20608; 12864; 25376; 50.08410544211672; 19.9919528419283
-9136; -6277; -15161; -3632; -12160; 12480; 50.08410544211672; 19.9919528419283
18932; 6945; 18388; 20096; 612; 10368; 50.08410544211672; 19.9919528419283
29312; -28813; -27550; -19584; 7776; -4992; 50.08411530112567; 19.991961434560082
-17307; 32521; -5694; 11072; -10952; -22944; 50.08411530112567; 19.991961434560082
-4037; 22847; 2834; -9429; 27064; -23256; 50.08411530112567; 19.991961434560082
11608; -28647; 17782; 13552; -27064; 26928; 50.08411530112567; 19.991961434560082
-914; 4071; 29540; -27984; -5176; 1840; 50.08411530112567; 19.991961434560082
-9219; -11940; 1082; 17472; -3804; 26320; 50.08411530112567; 19.991961434560082
-24332; 19882; -18831; 11392; -13848; 26152; 50.08411530112567; 19.991961434560082
27926; 17665; -18831; -14142; -6848; -24800; 50.08411530112567; 19.991961434560082
-8544; -5280; 3433; 20384; -5624; 22198; 50.08411530112567; 19.991961434560082
-15172; 12557; -28148; 10952; 6236; 27840; 50.08411530112567; 19.991961434560082
-32262; 13695; 27099; 22976; 12768; 31160; 50.08411530112567; 19.991961434560082
24414; 18428; 17865; -29048; 22512; 2576; 50.08411530112567; 19.991961434560082
14424; 2327; -25781; 3656; 20232; 32388; 50.08411530112567; 19.991961434560082
2291; 2941; 10989; 3044; 1840; 18858; 50.08411530112567; 19.991961434560082
539; 9876; -22891; -24928; 4416; -26272; 50.08411530112567; 19.991961434560082
-1138; 30411; 28395; 24608; -23572; -31328; 50.08410839685051; 19.992000023855578
-15546; -11408; -4872; 26944; -18416; -30256; 50.08410839685051; 19.992000023855578
-1902; 28800; -32342; 29488; 1670; 10488; 50.08410839685051; 19.992000023855578
-19374; 23851; 9170; -30568; 3340; -32240; 50.08410839685051; 19.992000023855578
17405; 23992; 10923; 12008; 31016; -13992; 50.08410839685051; 19.992000023855578
-8230; 16676; -12354; 17024; 24776; -15984; 50.08410839685051; 19.992000023855578
3662; -24828; -15933; -23744; -8667; 11392; 50.08410839685051; 19.992000023855578
-11900; -29238; 29607; -25392; 29956; -19620; 50.08410839685051; 19.992000023855578
2831; -5596; 31060; -21904; 28435; -15664; 50.08409635022094; 19.99204571726992
21823; 3406; -15941; -10512; -8056; -22224; 50.08409635022094; 19.99204571726992
5490; -8253; -24486; 9429; 31480; -1200; 50.08409635022094; 19.99204571726992
11143; 15156; 28386; -20352; -12008; 2912; 50.08409635022094; 19.99204571726992
-27994; 23394; 25031; 14904; -10338; 27072; 50.08409635022094; 19.99204571726992
-4111; -27493; 19841; 20527; -5624; -4248; 50.08409635022094; 19.99204571726992
2980; 10581; 31292; 28284; 22958; 15813; 50.08409635022094; 19.99204571726992
-13196; 31100; -12511; -12472; 30718; 32704; 50.08409635022094; 19.99204571726992
21216; -21847; -20749; -4568; -22958; 2896; 50.08409635022094; 19.99204571726992
-27537; 17365; 16337; 17824; -5476; 21600; 50.08408260364378; 19.992080683098138
1835; -4458; -4639; -6704; 22344; 1504; 50.08408260364378; 19.992080683098138
30143; 31707; -14256; -6088; -30866; -14292; 50.08408260364378; 19.992080683098138
-22729; -16739; 26028; -29956; -24481; -22664; 50.08408260364378; 19.992080683098138
-15023; 22248; -2430; 19152; -23720; -13382; 50.08408260364378; 19.992080683098138
10230; -6060; 3823; -18544; 5476; -18244; 50.08408260364378; 19.992080683098138
22279; 1953; 3366; -5328; 29956; -15813; 50.084073698118786; 19.992104581297692
10919; -6052; -16555; -6384; -20527; 5328; 50.084073698118786; 19.992104581297692
-15480; 7675; -14638; 10488; -29195; -8520; 50.084073698118786; 19.992104581297692
8702; 7982; 23512; -8667; -26764; 16112; 50.084073698118786; 19.992104581297692
-29671; 26209; -21198; 31160; 18858; -1376; 50.084073698118786; 19.992104581297692
15262; -25891; -26081; -6236; 6996; -4100; 50.084073698118786; 19.992104581297692
-10904; 1878; 10605; 22664; -24776; -18544; 50.084073698118786; 19.992104581297692
-25627; 12325; 26102; -5664; 2136; -27504; 50.08406906553428; 19.992134188899822
-20055; 8746; -18740; -29488; -20380; -24776; 50.08406906553428; 19.992134188899822
-16086; 24457; -7778; -7440; -14440; -30104; 50.08406906553428; 19.992134188899822
-6403; 17141; -21139; -7200; -18858; 23720; 50.08406906553428; 19.992134188899822
-1670; -15444; -29222; 30256; -18858; -19620; 50.08406906553428; 19.992134188899822
-23500; 7293; -7463; -10816; 8056; -12784; 50.08406906553428; 19.992134188899822
12754; -30010; 3118; 2576; -20527; -22958; 50.08406906553428; 19.992134188899822
5272; -3536; -29120; 31016; -19767; 5476; 50.08406906553428; 19.992134188899822
-16401; 29962; -29975; -30718; -28584; -13382; 50.08406906553428; 19.992134188899822
-16692; -9640; -379; 26928; -7907; 7146; 50.08406343185403; 19.992165089367216
21905; -28116; -24029; -29344; 29344; 9408; 50.08406343185403; 19.992165089367216
4808; -32069; -9140; 24776; 18244; -2752; 50.08406343185403; 19.992165089367216
10080; 3721; 4752; 2432; 29344; 27208; 50.08406343185403; 19.992165089367216
7871; 5690; 527; -19006; -30718; -160; 50.08406343185403; 19.992165089367216
-10597; -22469; 2519; 30400; -30104; 15648; 50.08406343185403; 19.992165089367216
8006; 24009; 401; -12672; 22810; -7920; 50.08406343185403; 19.992165089367216
18999; 12731; 28021; -26616; 11712; -9576; 50.08406343185403; 19.992165089367216
-32644; -22835; -28180; -3340; -19152; 23424; 50.08406343185403; 19.992165089367216
-18768; -5961; 30977; -160; 10190; 12328; 50.08406343185403; 19.992165089367216
2067; 516; 4752; -4272; 11099; -29648; 50.08405284726798; 19.99219437672654
26024; -12987; -9688; 19488; 12768; -4992; 50.08405284726798; 19.99219437672654
-13570; -16806; 32422; 25552; -10952; -30866; 50.08405284726798; 19.99219437672654
1378; 23327; 16644; -4880; 26002; -22050; 50.08405284726798; 19.99219437672654
24114; 1496; -28081; -4832; -15200; -6680; 50.08405284726798; 19.99219437672654
-27297; 23859; 15341; -3792; -9429; -908; 50.08405284726798; 19.99219437672654
-19980; -32160; -22335; -2144; 27968; -21436; 50.08405284726798; 19.99219437672654
-32337; -15885; -21422; -20208; -22664; 19600; 50.08405284726798; 19.99219437672654
28773; 6454; -4938; 2728; 31776; -3360; 50.084046893767976; 19.992228268801835
-7549; -630; -32566; 19916; -32240; 12304; 50.084046893767976; 19.992228268801835
31903; -29777; 32414; -25408; 10800; -11392; 50.084046893767976; 19.992228268801835
-8695; -11998; 13439; 7888; -19767; -28136; 50.084046893767976; 19.992228268801835
16483; -32285; -4415; -14464; -25392; 9280; 50.084046893767976; 19.992228268801835
29072; 18677; 32190; 7146; 1376; 12640; 50.084046893767976; 19.992228268801835
-524; -30691; -2970; -6848; -19006; -2112; 50.084046893767976; 19.992228268801835
-26159; -14514; 23894; 29048; 3192; -21728; 50.084046893767976; 19.992228268801835
-28517; -31687; -31735; 31360; 14440; 24481; 50.08403563258423; 19.992255538115057
-25627; -4989; 17018; 8816; 10488; -16592; 50.08403563258423; 19.992255538115057
16865; 17299; 20912; -17484; -7760; 20352; 50.08403563258423; 19.992255538115057
27013; -25351; 7934; 11744; -15664; -18858; 50.08403563258423; 19.992255538115057
12597; -12687; -8077; -24184; -18096; -3044; 50.08403563258423; 19.992255538115057
-21583; -20476; 7170; -27673; -17484; -3804; 50.08403563258423; 19.992255538115057
27627; 11727; 25181; 24332; -23720; 1376; 50.08403563258423; 19.992255538115057
-23717; -12081; 28693; -6384; 23572; 26764; 50.08403563258423; 19.992255538115057
15345; -29711; -16921; 29808; 21289; 26296; 50.08403563258423; 19.992255538115057
27469; 26284; 7327; -15504; -13992; 1200; 50.084025313899026; 19.992285520948606
22587; -20784; 20987; -2576; 20676; -3216; 50.084025313899026; 19.992285520948606
-17389; 9900; 916; 23256; 19620; -31480; 50.084025313899026; 19.992285520948606
20452; -17877; 4969; -23120; -2284; -11099; 50.084025313899026; 19.992285520948606
-18917; -27186; -25399; -2432; -32388; 8976; 50.084025313899026; 19.992285520948606
25343; -6750; 27548; -30080; 20527; 3504; 50.084025313899026; 19.992285520948606
-25470; -6675; -18000; 8224; 23868; 21584; 50.084025313899026; 19.992285520948606
17097; -19256; 29997; 13360; 17484; -32560; 50.084025313899026; 19.992285520948606
8702; 12483; -9763; -1360; 11860; 1670; 50.084025313899026; 19.992285520948606
-29439; 1878; -20899; -22050; -14292; 9576; 50.08401676312549; 19.992319145498183
2831; 11112; -14571; 22344; -11860; -10512; 50.08401676312549; 19.992319145498183
-16551; -18102; -8384; -10800; -4714; -26912; 50.08401676312549; 19.992319145498183
-2284; 25993; 28079; -15960; -8816; 7146; 50.08401676312549; 19.992319145498183
15420; 7840; 16104; 22958; 9429; 13552; 50.08401676312549; 19.992319145498183
-4568; 5158; 3665; -29648; 4714; 24352; 50.08401676312549; 19.992319145498183
28316; -15668; 534; 22810; -26764; -21728; 50.08401676312549; 19.992319145498183
31447; 20803; -8758; 296; 5624; -30568; 50.08400929355767; 19.992351947573642
17172; 6919; -694; 25840; -12621; -28284; 50.08400929355767; 19.992351947573642
25111; 4942; -9763; -31160; -31480; 4100; 50.08400929355767; 19.992351947573642
22370; -30325; -8825; -704; -27840; -4100; 50.08400929355767; 19.992351947573642
-30967; 16585; 5575; 19304; -18560; -19488; 50.08400929355767; 19.992351947573642
-5646; -28706; 8398; 20672; -26764; -13696; 50.08400929355767; 19.992351947573642
-1071; -5745; 1606; -10368; 30568; -24656; 50.08400929355767; 19.992351947573642
-1288; -12605; 21145; 2752; -31626; 5344; 50.08400929355767; 19.992351947573642
-2509; -22918; 17325; 25072; 10952; 23720; 50.08399840049623; 19.99238441770975
-22887; -17338; -32192; -24656; 12621; -7456; 50.08399840049623; 19.99238441770975
-30517; -16649; 28544; -26912; 10952; -736; 50.08399840049623; 19.99238441770975
23284; 13022; -25399; -18528; 5476; -2720; 50.08399840049623; 19.99238441770975
10537; 17365; -10652; -10352; -26616; 8816; 50.08399840049623; 19.99238441770975
6568; -6974; 30213; 32240; -18244; -23256; 50.08399840049623; 19.99238441770975
-22264; -3237; -27400; -29312; 32388; -6680; 50.08399840049623; 19.99238441770975
-9069; -15984; -19264; -1816; 3792; -31184; 50.08399840049623; 19.99238441770975
7489; 6753; -1733; -21632; 19304; 14400; 50.083994913245675; 19.99242079442934
-20452; 25836; -14547; -18880; -17800; -2144; 50.083994913245675; 19.99242079442934
-28690; 12632; 2602; 4544; -17484; 25392; 50.083994913245675; 19.99242079442934
-22422; -12770; 25048; 7920; -10338; 27696; 50.083994913245675; 19.99242079442934
14349; -16216; -22517; 25248; -19152; -20976; 50.083994913245675; 19.99242079442934
3520; -24977; 4122; 10656; -29344; 23120; 50.083994913245675; 19.99242079442934
27485; -6600; -1127; 27360; -2284; 14608; 50.083994913245675; 19.99242079442934
-6478; 18495; 991; -12920; -5476; 13532; 50.083994913245675; 19.99242079442934
6111; 7375; -6475; 16112; 27673; -17800; 50.083994913245675; 19.99242079442934
-5257; -31537; -14563; 3340; 19006; -13848; 50.083986782125955; 19.992450424090457
-28525; 965; -7380; -22664; 26152; -27524; 50.083986782125955; 19.992450424090457
32659; 15074; 18853; -12176; -8667; 18244; 50.083986782125955; 19.992450424090457
-7242; -10786; 8481; -9280; -22050; 21584; 50.083986782125955; 19.992450424090457
15877; -29785; -25931; 22198; -19006; 14904; 50.083986782125955; 19.992450424090457
8934; 4320; 26634; -31328; -26912; 464; 50.083986782125955; 19.992450424090457
15951; -14755; -17319; 22176; -9576; 16280; 50.083986782125955; 19.992450424090457
-17689; -20319; 25189; -10952; -7146; 12176; 50.083986782125955; 19.992450424090457
-217; 28202; -3493; -26464; 11860; -464; 50.083986782125955; 19.992450424090457
-20819; 2111; -9680; 10928; -2284; -19792; 50.083977793777905; 19.99248186158514
-75; 25387; -28231; 23868; 22958; -1984; 50.083977793777905; 19.99248186158514
-3198; -9407; -28680; 27840; 7907; -3632; 50.083977793777905; 19.99248186158514
-27379; 26218; 23279; -22176; -11860; -31016; 50.083977793777905; 19.99248186158514
-2965; -4458; -6093; -6996; -32388; -10040; 50.083977793777905; 19.99248186158514
31131; -4458; -26545; 14752; 31626; 22810; 50.083977793777905; 19.99248186158514
30683; 16369; 30910; 13382; -1522; 11860; 50.083977793777905; 19.99248186158514
-29215; 19890; -5021; 15680; 30718; 2896; 50.083977793777905; 19.99248186158514
-8994; 18885; -4199; 17188; -29956; 15664; 50.08397072193033; 19.992512733430928
-21118; 3780; -6175; -27968; -27232; -15072; 50.08397072193033; 19.992512733430928
13742; 13329; -21430; -2016; -21904; -1816; 50.08397072193033; 19.992512733430928
-24399; 22481; 8689; 13728; -23104; -12472; 50.08397072193033; 19.992512733430928
26107; -2930; -21572; -1224; 8816; -27072; 50.08397072193033; 19.992512733430928
-17464; 5217; 24035; -20676; -1816; -3044; 50.08397072193033; 19.992512733430928
-28750; -20709; 7958; -7146; -25680; -17936; 50.08396474944286; 19.99254630038355
1004; 30395; -29892; -20527; 7760; -6976; 50.08396474944286; 19.99254630038355
8934; 20031; 6820; -15984; 16574; -18544; 50.08396474944286; 19.99254630038355
32667; 4760; -31345; -6064; -22344; 22512; 50.08396474944286; 19.99254630038355
-16460; -30565; 7717; 21140; 13532; 14752; 50.08396474944286; 19.99254630038355
20452; 4768; -10361; 32368; -28435; 26912; 50.08396474944286; 19.99254630038355
6036; -4682; -19363; -21904; 11099; -3192; 50.08396474944286; 19.99254630038355
25875; -7895; -22418; -5328; 10190; -24016; 50.08396474944286; 19.99254630038355
-23485; -9116; 5658; 21120; 26764; 1984; 50.08396474944286; 19.99254630038355
31305; 11785; -29692; 3024; 8667; -23888; 50.08396474944286; 19.99254630038355
14124; -22760; 17715; 18244; 19916; -5328; 50.08396086259303; 19.992578795565183
19381; 23934; 31301; 3360; -26764; 6088; 50.08396086259303; 19.992578795565183
-23170; -25541; 11986; -18368; 8816; -19767; 50.08396086259303; 19.992578795565183
16881; -17669; 692; -6704; 28584; 13664; 50.08396086259303; 19.992578795565183
9084; 26658; -14090; -3804; -21140; 12008; 50.08396086259303; 19.992578795565183
27013; -24237; -20450; 296; 2136; 2728; 50.08396086259303; 19.992578795565183
-31050; -4375; 22374; -15200; -10338; -12160; 50.08396086259303; 19.992578795565183
-12656; -40; -12877; 24481; 21140; -23868; 50.083951139591576; 19.992604691467292
19688; 9120; 15199; 10952; -30104; -23572; 50.083951139591576; 19.992604691467292
-1753; 1339; 12675; 13680; 18096; 22512; 50.083951139591576; 19.992604691467292
29761; -1634; 6654; -2576; 31480; -12448; 50.083951139591576; 19.992604691467292
-12581; 3622; -10377; 26616; -12008; 23120; 50.083951139591576; 19.992604691467292
-29738; -31703; -27218; -4512; -16574; -1664; 50.083951139591576; 19.992604691467292
21067; -7214; 13612; -22810; 21436; 12920; 50.083951139591576; 19.992604691467292
-13196; -2032; -10294; -30424; 28728; 25072; 50.083951139591576; 19.992604691467292
19763; -16980; -2671; -19744; -612; 14584; 50.083951139591576; 19.992604691467292
-22189; -27045; 10690; -25120; 31016; -10656; 50.08394419486856; 19.992639474982415
8253; 27580; -28065; 13992; 27232; -15648; 50.08394419486856; 19.992639474982415
2756; 25977; 6804; -7292; -1670; 13232; 50.08394419486856; 19.992639474982415
-21957; -22851; 11139; -20976; -18858; 12160; 50.08394419486856; 19.992639474982415
-20063; -8344; 9934; 27504; -14292; -2752; 50.08394419486856; 19.992639474982415
-9758; -12845; 9154; -31016; 29048; 28896; 50.08394419486856; 19.992639474982415
-23485; 28202; 32131; -24944; 29048; 5624; 50.08393726295162; 19.992668377744728
-12125; 17897; 29449; -12768; -2284; -11408; 50.08393726295162; 19.992668377744728
-28525; 26367; 21369; -16574; 16574; -3656; 50.08393726295162; 19.992668377744728
28922; 22248; -26853; -2136; 24481; -21140; 50.08393726295162; 19.992668377744728
-26549; 27745; 26559; 2896; 32240; 14464; 50.08393726295162; 19.992668377744728
11683; 23311; 1141; -4512; 10040; 8832; 50.08393726295162; 19.992668377744728
-22115; 19342; -1367; 17632; -908; -29792; 50.08393726295162; 19.992668377744728
-16468; 9734; -9522; -26592; -21140; -11860; 50.08393726295162; 19.992668377744728
-12806; 28651; -32574; -20848; -19767; 30104; 50.083932059360606; 19.992701490478968
6808; -17653; 15349; 8520; -13992; 16256; 50.083932059360606; 19.992701490478968
-18228; -20709; -29967; 1968; -18712; 24608; 50.083932059360606; 19.992701490478968
13960; 11943; 3051; 22810; -26616; -19767; 50.083932059360606; 19.992701490478968
6261; -4001; -30814; 28752; 8816; 11248; 50.083932059360606; 19.992701490478968
27245; -18575; 10848; 23072; 23572; 1968; 50.083932059360606; 19.992701490478968
-9227; 23610; 12210; 31016; 20380; 18416; 50.083932059360606; 19.992701490478968
30301; 22091; -1658; 11099; -3954; -17944; 50.083932059360606; 19.992701490478968
-8919; 16145; -10137; 3632; -7146; -761; 50.083932059360606; 19.992701490478968
-12432; 23087; -2131; -8056; -5624; -8816; 50.083925918724574; 19.992731861245
31821; 4851; 10989; -10190; 19620; 30424; 50.083925918724574; 19.992731861245
-18685; 15306; 27473; -21752; 28284; 9280; 50.083925918724574; 19.992731861245
30907; -16739; 24724; -27968; 16724; -26296; 50.083925918724574; 19.992731861245
10388; -8045; 8398; -15052; 28435; 3192; 50.083925918724574; 19.992731861245
32659; 14542; -28837; 31160; 22344; -11408; 50.083925918724574; 19.992731861245
30982; -23756; -31204; -15168; 15960; 4714; 50.083925918724574; 19.992731861245
-142; 5150; 6496; -5008; 13382; 612; 50.083925918724574; 19.992731861245
-25926; -3851; -16390; -16724; 5624; -30568; 50.083925918724574; 19.992731861245
-2666; -1111; 16852; 1408; 25242; -28284; 50.0839191153192; 19.992764746416942
-10896; 12325; 29150; 908; -19620; 25242; 50.0839191153192; 19.992764746416942
28308; -15826; 28776; 17484; 6384; 24776; 50.0839191153192; 19.992764746416942
-2891; 2327; 3299; -13992; -14142; 30400; 50.0839191153192; 19.992764746416942
-8770; 20878; -15551; -10816; -7907; -23456; 50.0839191153192; 19.992764746416942
12289; 29265; 8772; 2752; 19767; -1056; 50.0839191153192; 19.992764746416942
-11203; -16673; 30438; -17484; -16574; 29344; 50.0839191153192; 19.992764746416942
11525; -5678; 3532; -3656; -761; -18858; 50.0839191153192; 19.992764746416942
12289; 11486; -13350; 12480; 21289; -13072; 50.083909691426435; 19.992796669507666
27245; 18271; -24254; 15216; -32536; -25072; 50.083909691426435; 19.992796669507666
-31806; 21169; -9456; -19744; 23720; -6536; 50.083909691426435; 19.992796669507666
11077; 8447; 25496; 3616; -20527; -4100; 50.083909691426435; 19.992796669507666
-6785; -26663; -27234; 22176; 20527; -6236; 50.083909691426435; 19.992796669507666
-17232; -1784; -21580; 19767; 2432; -16872; 50.083909691426435; 19.992796669507666
-25702; -4765; 22897; 18244; 8667; -12768; 50.083909691426435; 19.992796669507666
7025; -8045; -17311; -18080; 22198; 30718; 50.083909691426435; 19.992796669507666
-21658; -23922; -26545; 464; 1816; 28728; 50.083909691426435; 19.992796669507666
-16393; 8588; -7238; -3504; 32536; -26784; 50.08390039517931; 19.992829489610266
-31656; 11644; -26687; -13696; 1816; -6560; 50.08390039517931; 19.992829489610266
-27155; -19488; -2206; -5920; -26616; -12328; 50.08390039517931; 19.992829489610266
-32262; 13014; 1232; -9896; -12472; 9264; 50.08390039517931; 19.992829489610266
11750; 26226; 24350; 24032; 10338; 15960; 50.08390039517931; 19.992829489610266
3213; 14534; 26335; -1224; 9280; 28284; 50.08390039517931; 19.992829489610266
3288; 18129; 12293; -27208; -11860; -19620; 50.08390039517931; 19.992829489610266
18850; -18417; 13356; -4100; 8520; -1968; 50.08390039517931; 19.992829489610266
-24332; 22323; -27833; -20824; 2284; 12176; 50.08390039517931; 19.992829489610266
-12200; -6442; 18546; 10800; 24332; -9872; 50.083893396763514; 19.99285970640697
7714; 13546; 24575; -12920; 24332; -296; 50.083893396763514; 19.99285970640697
26406; -19413; -16323; -5600; -4100; 28136; 50.083893396763514; 19.99285970640697
9923; -27120; 18786; -28448; -28284; 2592; 50.083893396763514; 19.99285970640697
30450; 16369; 15656; 8667; -12008; 13848; 50.083893396763514; 19.99285970640697
31903; 1040; 29391; 8968; 28435; 6848; 50.083893396763514; 19.99285970640697
-13952; -17744; -32026; -1224; 12621; -30568; 50.083893396763514; 19.99285970640697
-2823; -23308; -26313; -32736; 4248; -5504; 50.083893396763514; 19.99285970640697
28233; -15668; -9920; 26616; 11099; 17484; 50.083893396763514; 19.99285970640697
-1056; -3087; 21519; 1984; -15960; -7292; 50.08388867913147; 19.992894198858085
19614; -12546; 13206; 9408; 22958; -13088; 50.08388867913147; 19.992894198858085
-10065; 19815; -27683; 22944; 22050; 6064; 50.08388867913147; 19.992894198858085
24953; 5615; -5719; -22810; 4100; -29195; 50.08388867913147; 19.992894198858085
32585; 21185; 23512; -7292; -12621; 26296; 50.08388867913147; 19.992894198858085
30683; -8494; 10981; 13680; 4714; 14584; 50.08388867913147; 19.992894198858085
23043; 9360; 22657; 1664; 3192; -8832; 50.08388867913147; 19.992894198858085
-26931; 14940; 6878; 31920; 27376; 27673; 50.083880731358924; 19.99292667928769
21216; -10778; 14801; -9264; 31016; 2144; 50.083880731358924; 19.99292667928769
10006; 1886; -4498; -23712; 3804; 17344; 50.083880731358924; 19.99292667928769
5961; 7450; 2677; -16280; -4714; 31328; 50.083880731358924; 19.99292667928769
23508; -12006; 26850; -31040; -12768; 17024; 50.083880731358924; 19.99292667928769
-5182; 23560; 318; -1984; 11860; 9429; 50.083880731358924; 19.99292667928769
-16244; 31939; 28611; -11696; 23720; -20824; 50.083880731358924; 19.99292667928769
-10439; 15995; 31442; -30256; 2432; -19152; 50.083880731358924; 19.99292667928769
29986; 2493; -17843; -8056; -32240; 16424; 50.083874682422184; 19.992957462398625
4276; 6993; 1456; 4100; 25392; 9429; 50.083874682422184; 19.992957462398625
9698; 22091; -20308; 15984; 10488; -4248; 50.083874682422184; 19.992957462398625
9624; 4942; 3996; 25952; -14752; -20848; 50.083874682422184; 19.992957462398625
4808; -280; -7727; -18080; -32388; -16560; 50.083874682422184; 19.992957462398625
32053; 9892; -23041; 31626; 11712; 3044; 50.083874682422184; 19.992957462398625
7714; -24745; -19189; 20384; 16872; 27328; 50.083874682422184; 19.992957462398625
17172; 1264; 24019; 18712; 2432; 9429; 50.083874682422184; 19.992957462398625
-26316; 18346; -28530; 20380; -30718; -22368; 50.083874682422184; 19.992957462398625
-67; -24820; 13222; 28728; 11560; -16592; 50.08387038867785; 19.99298918658357
-32113; -23989; 22050; 6240; -17632; 25840; 50.08387038867785; 19.99298918658357
-24789; -17495; -7711; -908; -13216; 17632; 50.08387038867785; 19.99298918658357
-18228; -23906; -30814; -4288; -12896; 27840; 50.08387038867785; 19.99298918658357
2382; 27663; 11753; 18858; 480; 12192; 50.08387038867785; 19.99298918658357
-28061; -7596; -13948; -21140; -1504; -20512; 50.08387038867785; 19.99298918658357
-18677; -1950; -11050; -29195; 27984; 19328; 50.08387038867785; 19.99298918658357
-17755; 11470; 10525; 27552; 13696; -6832; 50.08387038867785; 19.99298918658357
4698; 24276; -504; 19904; 24944; -27524; 50.08386427496166; 19.993024247177573
-20039; -24280; -21256; -5504; -13504; -30718; 50.08386427496166; 19.993024247177573
1520; 22721; 1555; -32128; -9376; 4288; 50.08386427496166; 19.993024247177573
-26343; 1688; -14421; 576; -27360; 31312; 50.08386427496166; 19.993024247177573
3071; 30801; 7851; 24384; 31008; 3264; 50.08386427496166; 19.993024247177573
14314; -27008; 23526; -22144; 22368; 14464; 50.08386427496166; 19.993024247177573
20138; 4130; -13542; 14112; -7104; -11072; 50.08386432858709; 19.993052894015527
-3924; 2434; -30862; -30104; 5504; 22464; 50.08386432858709; 19.993052894015527
-6993; 20971; -19528; -1; -24944; 8544; 50.08386432858709; 19.993052894015527
10313; -11982; -16349; 15648; 7232; 30784; 50.08386432858709; 19.993052894015527
5994; -14098; 16535; 13184; 12352; -11680; 50.08386432858709; 19.993052894015527
-27679; 26917; 732; -11648; -19328; -17312; 50.08386432858709; 19.993052894015527
29254; -12952; -8269; -22050; -29824; -7136; 50.08386432858709; 19.993052894015527
20012; 14734; 3299; 28728; -26784; 17168; 50.08384792189841; 19.993063029767093
6576; 18388; -1899; -25472; 18080; 4672; 50.08384792189841; 19.993063029767093
-13196; -13243; 16478; 29824; 22198; -17632; 50.08384792189841; 19.993063029767093
3048; 25363; -4009; 11840; 12128; 11232; 50.08384792189841; 19.993063029767093
-3481; -23166; 11387; -16574; 29024; 22592; 50.08384792189841; 19.993063029767093
5737; -25974; 23920; 25728; -21408; 30880; 50.08384792189841; 19.993063029767093
-13960; 14518; 30654; -16574; -15040; 2944; 50.08384792189841; 19.993063029767093
-17980; 27414; 29300; 10352; -20064; -25072; 50.08382463460567; 19.993030090439472
26099; -31554; 27938; -16280; 1816; 22198; 50.08382463460567; 19.993030090439472
10080; 20496; 18819; 20544; 29344; -1968; 50.08382463460567; 19.993030090439472
-25387; 12151; 15357; 3904; 3792; -26496; 50.08382463460567; 19.993030090439472
29686; 27430; 14983; -14272; 30866; 24332; 50.08382463460567; 19.993030090439472
-18137; -9140; 5783; 1816; -28435; 7907; 50.08382463460567; 19.993030090439472
-29671; -3859; -11574; -18392; -18712; 32224; 50.08382463460567; 19.993030090439472
-2135; 6221; 2527; 25680; 2284; 5152; 50.08382463460567; 19.993030090439472
-13645; -16897; -21048; 21728; 10952; -25072; 50.083795433053645; 19.993002478872512
28623; 957; 23736; 6536; 11712; -22944; 50.083795433053645; 19.993002478872512
32360; -5072; 2087; -13848; -148; 26616; 50.083795433053645; 19.993002478872512
-26848; 20787; -7081; 6236; 32088; 30272; 50.083795433053645; 19.993002478872512
21988; -6915; 23594; 16608; -28284; -30400; 50.083795433053645; 19.993002478872512
-10364; 2701; 17333; -12160; -24628; 28584; 50.083795433053645; 19.993002478872512
-756; 3540; 20464; -22958; -29048; -6704; 50.083795433053645; 19.993002478872512
11451; 5757; -13401; 29808; -1670; 29048; 50.083775782631676; 19.992983801613768
-1811; 31757; 959; 8864; 8667; 25984; 50.083775782631676; 19.992983801613768
-14176; -1169; 32356; -7776; 19006; -16724; 50.083775782631676; 19.992983801613768
-10979; 13612; -16539; -16400; -5768; -29936; 50.083775782631676; 19.992983801613768
622; -28348; -9821; 31920; 20232; -128; 50.083775782631676; 19.992983801613768
-756; 14443; 1705; -13408; -31920; 3216; 50.083775782631676; 19.992983801613768
20768; -2548; 19468; -22816; -17632; -2728; 50.083775782631676; 19.992983801613768
-9667; -14696; 2452; -8816; -29808; -28112; 50.083775782631676; 19.992983801613768
31746; 28418; -24163; -5504; -29808; -7776; 50.083775782631676; 19.992983801613768
-23193; -10096; -15252; 5008; -612; 28728; 50.08375961698093; 19.992983088456572
24654; 9112; -16555; 16280; -16574; -8968; 50.08375961698093; 19.992983088456572
-15712; 2941; -13724; 31776; -3954; -7760; 50.08375961698093; 19.992983088456572
18169; -30632; 21062; -2728; 19152; -10040; 50.08375961698093; 19.992983088456572
-32113; 15987; -20666; -27524; -13992; 24016; 50.08375961698093; 19.992983088456572
-18228; -7588; 18471; 25242; 30256; -31040; 50.08375961698093; 19.992983088456572
4666; 5682; 15722; 29656; 24628; -13232; 50.08375961698093; 19.992983088456572
-32196; 31009; -31653; 23408; -14292; 4688; 50.08374569471053; 19.992971459646995
-11675; 27663; 18778; -9576; 9429; 12920; 50.08374569471053; 19.992971459646995
-25702; -19031; 5575; -13532; 464; 9440; 50.08374569471053; 19.992971459646995
-17082; -25674; 3756; -1224; 17188; 22050; 50.08374569471053; 19.992971459646995
31513; -9573; -5411; -29488; 26764; 16424; 50.08374569471053; 19.992971459646995
5654; 31773; -24710; -14440; 6996; 25552; 50.08374569471053; 19.992971459646995
-19217; 20787; 783; -17776; -7907; 32240; 50.08374569471053; 19.992971459646995
31895; 342; 27473; -26002; -17335; 23572; 50.08372518894705; 19.99295718132997
19771; 32545; -15310; 13848; -22198; 31328; 50.08372518894705; 19.99295718132997
10537; 6654; 14643; 4688; 2896; -1056; 50.08372518894705; 19.99295718132997
2067; 14916; -15409; -13088; -5476; 13408; 50.08372518894705; 19.99295718132997
26107; -15901; 417; -20527; 26912; -10190; 50.08372518894705; 19.99295718132997
-5415; 26044; 14352; -30240; -31936; -31480; 50.08372518894705; 19.99295718132997
-7541; -8758; 9379; -27504; -22368; -9136; 50.08372518894705; 19.99295718132997
-2359; 6371; -18059; 20352; -7312; 18528; 50.08372518894705; 19.99295718132997
28233; 25977; 32679; -19006; 26296; 21728; 50.08372518894705; 19.99295718132997
4882; 29781; -30664; 1360; -20380; 5920; 50.08370527232376; 19.992950683031268
7863; 27497; 17865; 1670; 14904; 16424; 50.08370527232376; 19.992950683031268
-13645; 10033; -22020; -27968; -27524; 31016; 50.08370527232376; 19.992950683031268
-18461; -29411; 26410; 592; -10190; -12944; 50.08370527232376; 19.992950683031268
-29296; 13238; -22800; 13216; 29195; -2136; 50.08370527232376; 19.992950683031268
8777; 882; -30424; -6704; -14440; -11392; 50.08370527232376; 19.992950683031268
-5174; -26970; -11133; 29656; -32064; 9600; 50.08370527232376; 19.992950683031268
-31349; -23075; 28934; -10512; 18712; 9744; 50.08370527232376; 19.992950683031268
21366; -22611; 15896; 5152; 19472; -22344; 50.083682665214205; 19.99293673019997
-21882; -16905; 24267; 27968; -19916; 17188; 50.083682665214205; 19.99293673019997
18700; 7907; 4378; -26336; -8667; 14880; 50.083682665214205; 19.99293673019997
19314; -10727; 29682; -19024; -14904; 4714; 50.083682665214205; 19.99293673019997
-16626; -26738; 25720; 4688; 27673; 16112; 50.083682665214205; 19.99293673019997
-2135; -414; -11050; -23572; 24481; 12008; 50.083682665214205; 19.99293673019997
-19524; 26591; 11678; 18712; -6236; -4568; 50.083682665214205; 19.99293673019997
-22654; -26214; -7570; -14752; -2284; -15664; 50.083659208321414; 19.992932537399852
12829; 3863; 20389; 28112; -11712; -30880; 50.083659208321414; 19.992932537399852
1602; -27875; -30482; -10040; -23720; -13232; 50.083659208321414; 19.992932537399852
-32345; 4162; -18398; 11860; -6996; 11408; 50.083659208321414; 19.992932537399852
-1; -1; -1; -30718; 19767; 17776; 50.083659208321414; 19.992932537399852
19688; -8742; -8633; -24496; -26764; -12920; 50.083659208321414; 19.992932537399852
31521; -31073; 377; 12472; 3044; 18858; 50.083659208321414; 19.992932537399852
-29896; -28631; -6691; -27208; 31480; -29648; 50.08363709960149; 19.992915252239243
24040; -29395; 32206; -30104; -12621; -14292; 50.08363709960149; 19.992915252239243
-19142; -21772; -29908; -8968; 19620; -22640; 50.08363709960149; 19.992915252239243
-32337; 30486; 22440; 16608; -10952; -6224; 50.08363709960149; 19.992915252239243
25725; -12396; -21040; 8976; -2284; -26002; 50.08363709960149; 19.992915252239243
-15098; 11711; -23340; 1522; 13680; 20208; 50.08363709960149; 19.992915252239243
-14483; 23453; -237; 31626; 12621; 1200; 50.08363709960149; 19.992915252239243
-24789; 32396; 7958; 7440; -25092; 11536; 50.08363709960149; 19.992915252239243
-18378; -13459; -8991; 19472; 10338; -18244; 50.08363709960149; 19.992915252239243
-21201; -17819; -4655; 30718; -29956; 20380; 50.08361501668894; 19.992906335311016
4591; 15904; 28311; 7888; -10190; -27072; 50.08361501668894; 19.992906335311016
10769; -10030; 15714; -32224; 22198; -25840; 50.08361501668894; 19.992906335311016
2465; 24906; 31442; 16000; 6384; 24332; 50.08361501668894; 19.992906335311016
-3804; -30632; -745; 22958; 30400; 18368; 50.08361501668894; 19.992906335311016
16333; -12853; 23894; -25552; -3804; -2144; 50.08361501668894; 19.992906335311016
2681; 4469; -12586; -17648; -19916; 17776; 50.08361501668894; 19.992906335311016
-19831; 19043; -6483; 14904; -5152; -9120; 50.08361501668894; 19.992906335311016
547; -24147; -30349; 21752; -11392; 640; 50.08361501668894; 19.992906335311016
21764; 16278; 5666; -4100; 18712; -2136; 50.0835938213138; 19.992890733821476
-29970; 8804; 25953; -17600; -22958; 14736; 50.0835938213138; 19.992890733821476
1867; 14668; 13423; 8496; 17944; -29824; 50.0835938213138; 19.992890733821476
3071; 23295; 30013; -9264; 19916; -12920; 50.0835938213138; 19.992890733821476
-14475; -15228; 15066; 11408; -22512; 908; 50.0835938213138; 19.992890733821476
-14101; 13206; 22531; -30848; -13382; 6704; 50.0835938213138; 19.992890733821476
-2567; -13251; -24860; 27072; 22976; -18816; 50.0835938213138; 19.992890733821476
24272; -16598; -18973; 31920; -8816; -4568; 50.0835938213138; 19.992890733821476
23118; -7813; 19484; 15664; -24628; -13072; 50.0835938213138; 19.992890733821476
8411; -2139; 19136; -3168; -22176; -8352; 50.083571447346635; 19.992882461632842
-25470; -7521; -24694; 6816; 27524; 13992; 50.083571447346635; 19.992882461632842
-19441; -21721; -12653; -12621; 26296; -28284; 50.083571447346635; 19.992882461632842
-3190; -9207; 21452; -1664; -27072; 26002; 50.083571447346635; 19.992882461632842
-12806; 8722; -646; -9408; -7616; 10016; 50.083571447346635; 19.992882461632842
-16011; 7269; -18275; 21584; 10190; -7292; 50.083571447346635; 19.992882461632842
24264; -9664; 11844; 25392; -2136; -11712; 50.083571447346635; 19.992882461632842
21673; -2190; -14472; -2592; -30568; -12944; 50.083571447346635; 19.992882461632842
20685; 25977; 21751; -29376; 20232; 6680; 50.083571447346635; 19.992882461632842
-17464; -24296; -27301; -13360; -19304; -1670; 50.083571447346635; 19.992882461632842
6725; -3777; -16000; 8976; 17800; 10338; 50.083571447346635; 19.992882461632842
-31258; -16066; -17228; 15052; -20527; 32388; 50.083571447346635; 19.992882461632842
21224; 6753; -17228; -1224; -11872; -2592; 50.083571447346635; 19.992882461632842
-12573; -15767; -10802; -1840; -22816; -17056; 50.083571447346635; 19.992882461632842
-3323; 17479; 26362; 4128; -6832; 5504; 50.083571447346635; 19.992882461632842
29345; -32451; 13706; 9600; 19488; 24192; 50.083561221052285; 19.992881874622476
-15838; 1894; -8152; 19936; -5152; -13992; 50.083561221052285; 19.992881874622476
-11801; 11561; 20622; 2284; 24332; 28435; 50.083561221052285; 19.992881874622476
-22539; 14259; 8556; -2896; -10656; 26152; 50.083561221052285; 19.992881874622476
-24249; 2036; 20539; -22080; -28896; 20208; 50.083561221052285; 19.992881874622476
26871; 28891; -23108; -10952; 16256; 27968; 50.083561221052285; 19.992881874622476
27627; 6619; -678; -29056; 4248; 31456; 50.083561221052285; 19.992881874622476
8045; 6103; -25781; -15808; -11872; 10304; 50.083561221052285; 19.992881874622476
30376; -16341; -6632; -2256; 23720; 14904; 50.083561221052285; 19.992881874622476
29454; -3063; -17544; -15352; -27840; 29360; 50.083561221052285; 19.992881874622476
-21658; -19854; -30523; -1504; 9576; 21140; 50.083561221052285; 19.992881874622476
-14184; -20768; -18839; -12784; -5768; 23720; 50.083561221052285; 19.992881874622476
5729; 11660; -13882; 5476; 24332; -14142; 50.083561221052285; 19.992881874622476
-22804; -3221; -27998; -7907; -22344; 10190; 50.083561221052285; 19.992881874622476
1843; -15503; -4191; 12472; 27376; 20527; 50.083561221052285; 19.992881874622476
-16775; 31341; 30828; -14880; -13532; 29195; 50.083561221052285; 19.992881874622476
12289; 19208; 31666; 12328; 18858; -16872; 50.083561221052285; 19.992881874622476
-19748; -29013; -13574; 15216; -27673; 3504; 50.083561221052285; 19.992881874622476
-23410; -8037; -6632; -20824; -16724; -24776; 50.083561221052285; 19.992881874622476
-7616; -23981; -11590; 14752; -17484; -12008; 50.083561221052285; 19.992881874622476
2989; 9202; -21812; 15664; -9576; -24481; 50.083561221052285; 19.992881874622476
-24324; -16889; -985; 16872; -6384; -29956; 50.083561221052285; 19.992881874622476
-13188; -2315; -18532; -27524; 7760; -10338; 50.083561221052285; 19.992881874622476
-5174; 8671; -30664; -22664; 25092; 29956; 50.083561221052285; 19.992881874622476
-4792; 32628; -24561; 6536; 14904; -29195; 50.083561221052285; 19.992881874622476
17255; 20039; 32430; -22050; -7146; -5476; 50.083561221052285; 19.992881874622476
-25162; -17495; -26238; -4714; 3954; 19006; 50.083561221052285; 19.992881874622476
22827; -9332; 3515; -2432; -13382; 11860; 50.083561221052285; 19.992881874622476
-25619; -22760; 26252; 28435; 12621; -24481; 50.083561221052285; 19.992881874622476
-7309; -8112; -603; 28435; 4714; 12621; 50.083561221052285; 19.992881874622476
