ax; ay; az; gx; gy; gz; magx; magy; magz; magN; th; tm; ts; lati; loni; lat; lon
-7531738; 96325683; -19091796; -67138671; -42724609; -48828125; -1900000000; -400000000; 4700000000; 25811135864;1600000000; 2100000000; 5900000000; 5008339059; 1999341030; 50.08340379222827; 19.993421757321155
-7604980; 95458984; -18640136; -48828125; -67138671; 6103515; -1900000000; -400000000; 4600000000; 25811135864;1600000000; 2100000000; 5900000000; 5008339140; 1999341030; 50.08340379222827; 19.993421757321155
-8422851; 95068359; -17993164; -12207031; 24414062; 30517578; -1900000000; -500000000; 4600000000; 25525643920;1600000000; 2200000000; 0; 5008339140; 1999341030; 50.08340379222827; 19.993421757321155
-7531738; 95971679; -20166015; 12207031; -30517578; 36621093; -1900000000; -500000000; 4600000000; 25525643920;1600000000; 2200000000; 0; 5008339300; 1999340889; 50.08340379222827; 19.993421757321155
-10290527; 95104980; -19482421; 317382812; -170898437; 244140625; -1800000000; -400000000; 4600000000; 25747119140;1600000000; 2200000000; 100000000; 5008339300; 1999340889; 50.08340379222827; 19.993421757321155
-5554199; 95556640; -20483398; 616455078; 244140625; 1794433593; -1900000000; -300000000; 4600000000; 26102737426;1600000000; 2200000000; 100000000; 5008339420; 1999340879; 50.083412665008545; 19.993416492495864
-16589355; 86901855; -19421386; 665283203; -1104736328; -3857421875; -1500000000; -300000000; 4600000000; 25869006347;1600000000; 2200000000; 200000000; 5008339420; 1999340879; 50.083412665008545; 19.993416492495864
-7519531; 96337890; -23583984; 109863281; 1531982421; 4492187500; -1400000000; -200000000; 4600000000; 26642367553;1600000000; 2200000000; 200000000; 5008339520; 1999340849; 50.083412665008545; 19.993416492495864
-11437988; 94067382; -22070312; 1391601562; 537109375; -286865234; -700000000; -800000000; 4700000000; 22118592834;1600000000; 2200000000; 300000000; 5008339520; 1999340849; 50.083412665008545; 19.993416492495864
-15734863; 89135742; -23095703; 36621093; 2703857421; -1190185546; -600000000; -700000000; 4700000000; 22060128784;1600000000; 2200000000; 300000000; 5008339590; 1999340889; 50.083412665008545; 19.993416492495864
769042; 95666503; -17602539; -115966796; -2209472656; -634765625; -1900000000; -400000000; 4500000000; 25811135864;1600000000; 2200000000; 400000000; 5008339590; 1999340889; 50.083412665008545; 19.993416492495864
10791015; 94885253; -32214355; -1611328125; -183105468; 1086425781; -1900000000; -300000000; 4600000000; 26102737426;1600000000; 2200000000; 400000000; 5008339650; 1999340909; 50.083412665008545; 19.993416492495864
-11523437; 92651367; -18322753; -1196289062; -195312500; -683593750; -1400000000; -500000000; 4700000000; 25034617614;1600000000; 2200000000; 500000000; 5008339650; 1999340909; 50.083412665008545; 19.993416492495864
-9899902; 96130371; -19482421; 292968750; -170898437; -12207031; -1400000000; -600000000; 4700000000; 24680140686;1600000000; 2200000000; 500000000; 5008339650; 1999340870; 50.083412665008545; 19.993416492495864
-11047363; 93835449; -17346191; -543212890; -24414062; 415039062; -1300000000; -800000000; 4800000000; 23839250183;1600000000; 2200000000; 600000000; 5008339650; 1999340870; 50.083412665008545; 19.993416492495864
-8862304; 100500488; -14929199; -598144531; -354003906; 152587890; -1300000000; -800000000; 4800000000; 23839250183;1600000000; 2200000000; 600000000; 5008339660; 1999340849; 50.083412665008545; 19.993416492495864
-14746093; 90490722; -16052246; 372314453; -231933593; 213623046; -1200000000; -800000000; 4900000000; 23630992126;1600000000; 2200000000; 700000000; 5008339660; 1999340849; 50.083412665008545; 19.993416492495864
-13623046; 96875000; -18273925; 256347656; -805664062; 341796875; -1200000000; -800000000; 4800000000; 23630992126;1600000000; 2200000000; 700000000; 5008339660; 1999340859; 50.08339756898253; 19.993400419308347
-14367675; 89965820; -17272949; 378417968; 683593750; -54931640; -1100000000; -800000000; 4800000000; 23397262573;1600000000; 2200000000; 800000000; 5008339660; 1999340859; 50.08338783427012; 19.99339428078431
-13757324; 98156738; -18542480; -213623046; -451660156; -61035156; -1100000000; -700000000; 4800000000; 23752882385;1600000000; 2200000000; 800000000; 5008339660; 1999340859; 50.08338783427012; 19.99339428078431
-16796875; 93945312; -18701171; -42724609; -189208984; 146484375; -1000000000; -700000000; 4800000000; 23500799560;1600000000; 2200000000; 900000000; 5008339660; 1999340859; 50.08338783427012; 19.99339428078431
-16479492; 95495605; -16528320; -146484375; -97656250; -79345703; -1000000000; -700000000; 4800000000; 23500799560;1600000000; 2200000000; 900000000; 5008339640; 1999340840; 50.08338783427012; 19.99339428078431
-15991210; 95202636; -15332031; -244140625; -109863281; 97656250; -1000000000; -700000000; 4700000000; 23500799560;1600000000; 2200000000; 1000000000; 5008339640; 1999340840; 50.08338783427012; 19.99339428078431
-16186523; 94519042; -16186523; -115966796; 54931640; 48828125; -1000000000; -800000000; 4700000000; 23134019470;1600000000; 2200000000; 1000000000; 5008339609; 1999340799; 50.08338783427012; 19.99339428078431
-15441894; 95593261; -18444824; 73242187; -109863281; 6103515; -1100000000; -700000000; 4800000000; 23752882385;1600000000; 2200000000; 1100000000; 5008339609; 1999340799; 50.08338783427012; 19.99339428078431
-15808105; 94250488; -16809082; -18310546; 36621093; -85449218; -1100000000; -700000000; 4800000000; 23500799560;1600000000; 2200000000; 1100000000; 5008339630; 1999340780; 50.08338783427012; 19.99339428078431
-16076660; 93762207; -17480468; -207519531; -6103515; -152587890; -1000000000; -700000000; 4700000000; 23500799560;1600000000; 2200000000; 1200000000; 5008339630; 1999340780; 50.08338783427012; 19.99339428078431
-16931152; 94641113; -16259765; -164794921; -91552734; 24414062; -1000000000; -700000000; 4800000000; 23500799560;1600000000; 2200000000; 1200000000; 5008339650; 1999340729; 50.08338783427012; 19.99339428078431
-16638183; 95227050; -15869140; -317382812; 54931640; -91552734; -1000000000; -700000000; 4800000000; 23500799560;1600000000; 2200000000; 1300000000; 5008339650; 1999340729; 50.08338783427012; 19.99339428078431
-16577148; 94299316; -17907714; -12207031; 36621093; -79345703; -1000000000; -700000000; 4800000000; 23500799560;1600000000; 2200000000; 1300000000; 5008339620; 1999340620; 50.08338783427012; 19.99339428078431
-16418457; 96081542; -15234375; -97656250; 115966796; 73242187; -1000000000; -700000000; 4800000000; 23500799560;1600000000; 2200000000; 1400000000; 5008339620; 1999340620; 50.08338783427012; 19.99339428078431
-17004394; 95288085; -16992187; 24414062; -36621093; -103759765; -1000000000; -800000000; 4800000000; 23134019470;1600000000; 2200000000; 1400000000; 5008339640; 1999340570; 50.08338783427012; 19.99339428078431
-17919921; 94543457; -17858886; 274658203; 30517578; -91552734; -1000000000; -700000000; 4800000000; 23500799560;1600000000; 2200000000; 1500000000; 5008339640; 1999340570; 50.08338783427012; 19.99339428078431
-17163085; 94982910; -19897460; 250244140; 6103515; -67138671; -1000000000; -700000000; 4700000000; 23500799560;1600000000; 2200000000; 1500000000; 5008339680; 1999340489; 50.08338783427012; 19.99339428078431
-17480468; 93835449; -19226074; 103759765; -12207031; -122070312; -1000000000; -600000000; 4700000000; 23903622436;1600000000; 2200000000; 1600000000; 5008339680; 1999340489; 50.08338783427012; 19.99339428078431
-17980957; 94897460; -17907714; 6103515; -54931640; 213623046; -900000000; -700000000; 4600000000; 23212501525;1600000000; 2200000000; 1600000000; 5008339669; 1999340440; 50.08338783427012; 19.99339428078431
-16687011; 93457031; -18530273; 152587890; 286865234; -170898437; -1000000000; -700000000; 4700000000; 23500799560;1600000000; 2200000000; 1700000000; 5008339669; 1999340440; 50.08338783427012; 19.99339428078431
-18383789; 96325683; -16040039; -274658203; -146484375; -67138671; -1000000000; -700000000; 4700000000; 23500799560;1600000000; 2200000000; 1700000000; 5008339669; 1999340420; 50.08338783427012; 19.99339428078431
-17260742; 97021484; -17077636; -158691406; -158691406; -109863281; -900000000; -700000000; 4800000000; 23212501525;1600000000; 2200000000; 1800000000; 5008339669; 1999340420; 50.08338783427012; 19.99339428078431
-17297363; 94628906; -17932128; -115966796; -225830078; -54931640; -900000000; -800000000; 4700000000; 22836645507;1600000000; 2200000000; 1800000000; 5008339609; 1999340300; 50.08338783427012; 19.99339428078431
-18469238; 97204589; -15588378; -195312500; -79345703; 317382812; -900000000; -900000000; 4800000000; 22500000000;1600000000; 2200000000; 1900000000; 5008339609; 1999340300; 50.08338783427012; 19.99339428078431
-18542480; 95092773; -16394042; 42724609; -183105468; -48828125; -1000000000; -900000000; 4800000000; 22801277160;1600000000; 2200000000; 1900000000; 5008339590; 1999340290; 50.08338783427012; 19.99339428078431
-17724609; 94030761; -15161132; 225830078; 115966796; -390625000; -900000000; -800000000; 4800000000; 22836645507;1600000000; 2200000000; 2000000000; 5008339590; 1999340290; 50.08338783427012; 19.99339428078431
-17492675; 101403808; -20849609; -433349609; -457763671; 177001953; -900000000; -800000000; 4800000000; 22836645507;1600000000; 2200000000; 2000000000; 5008339609; 1999340290; 50.08338783427012; 19.99339428078431
-21459960; 93200683; -11840820; -170898437; -390625000; -122070312; -800000000; -900000000; 4900000000; 22163352966;1600000000; 2200000000; 2100000000; 5008339609; 1999340290; 50.08338783427012; 19.99339428078431
-20458984; 91992187; -17443847; 48828125; 177001953; 378417968; -800000000; -900000000; 4800000000; 22163352966;1600000000; 2200000000; 2100000000; 5008339650; 1999340300; 50.08338783427012; 19.99339428078431
-19506835; 94543457; -16284179; 61035156; 97656250; -67138671; -900000000; -800000000; 4700000000; 22836645507;1600000000; 2200000000; 2200000000; 5008339650; 1999340300; 50.08338783427012; 19.99339428078431
-21606445; 96789550; -16357421; 54931640; -54931640; -48828125; -900000000; -800000000; 4800000000; 22836645507;1600000000; 2200000000; 2200000000; 5008339640; 1999340279; 50.08338783427012; 19.99339428078431
-20825195; 85729980; -39685058; 201416015; 500488281; -170898437; -600000000; -500000000; 4500000000; 23019442749;1600000000; 2200000000; 2300000000; 5008339640; 1999340279; 50.08338783427012; 19.99339428078431
-21496582; 91784667; -28833007; 805664062; 152587890; -170898437; -600000000; -500000000; 4500000000; 23019442749;1600000000; 2200000000; 2300000000; 5008339660; 1999340219; 50.08338783427012; 19.99339428078431
-26269531; 88159179; -11730957; -6103515; -1373291015; 1586914062; -700000000; -1100000000; 4800000000; 21247119140;1600000000; 2200000000; 2400000000; 5008339660; 1999340219; 50.083372797969325; 19.993398949413983
-16235351; 99890136; -16125488; 616455078; -598144531; 1251220703; -900000000; -1100000000; 4800000000; 21928939819;1600000000; 2200000000; 2400000000; 5008339609; 1999340140; 50.083372797969325; 19.993398949413983
-27282714; 90991210; -4187011; -299072265; -872802734; 201416015; -800000000; -1300000000; 4700000000; 21160749816;1600000000; 2200000000; 2500000000; 5008339609; 1999340140; 50.083372797969325; 19.993398949413983
-19909667; 91589355; -14721679; 189208984; -677490234; -244140625; -800000000; -1300000000; 4800000000; 21160749816;1600000000; 2200000000; 2500000000; 5008339580; 1999340050; 50.083372797969325; 19.993398949413983
-20690917; 97375488; -10693359; 164794921; -152587890; -85449218; -800000000; -1300000000; 4800000000; 21160749816;1600000000; 2200000000; 2600000000; 5008339580; 1999340050; 50.083372797969325; 19.993398949413983
-23852539; 92309570; -12670898; 567626953; -61035156; 213623046; -800000000; -1300000000; 4800000000; 21160749816;1600000000; 2200000000; 2600000000; 5008339570; 1999340009; 50.083372797969325; 19.993398949413983
-24108886; 93310546; -12048339; 225830078; 140380859; -24414062; -800000000; -1200000000; 4800000000; 21369006347;1600000000; 2200000000; 2700000000; 5008339570; 1999340009; 50.083372797969325; 19.993398949413983
-22595214; 92749023; -14477539; 384521484; -54931640; -6103515; -800000000; -1100000000; 4800000000; 21602735900;1600000000; 2200000000; 2700000000; 5008339580; 1999339950; 50.083372797969325; 19.993398949413983
-23071289; 94128417; -12951660; 48828125; 18310546; -48828125; -800000000; -1200000000; 4700000000; 21369006347;1600000000; 2200000000; 2800000000; 5008339580; 1999339950; 50.083372797969325; 19.993398949413983
-23376464; 94055175; -14306640; 30517578; 12207031; -42724609; -700000000; -1200000000; 4700000000; 21025642395;1600000000; 2200000000; 2800000000; 5008339590; 1999339870; 50.083372797969325; 19.993398949413983
-23266601; 95410156; -12353515; 0; -134277343; -140380859; -800000000; -1100000000; 4700000000; 21602735900;1600000000; 2200000000; 2900000000; 5008339590; 1999339870; 50.083372797969325; 19.993398949413983
-21704101; 94787597; -12683105; -67138671; -67138671; 122070312; -800000000; -1100000000; 4800000000; 21602735900;1600000000; 2200000000; 2900000000; 5008339620; 1999339849; 50.083372797969325; 19.993398949413983
-21606445; 94409179; -15588378; 67138671; -189208984; 54931640; -800000000; -1000000000; 4700000000; 21865982055;1600000000; 2200000000; 3000000000; 5008339620; 1999339849; 50.083372797969325; 19.993398949413983
-23950195; 94006347; -15917968; 97656250; -48828125; -79345703; -800000000; -1000000000; 4600000000; 21865982055;1600000000; 2200000000; 3000000000; 5008339710; 1999339840; 50.083372797969325; 19.993398949413983
-25939941; 95983886; -10546875; -24414062; -482177734; 122070312; -800000000; -1100000000; 4800000000; 21602735900;1600000000; 2200000000; 3100000000; 5008339710; 1999339840; 50.083372797969325; 19.993398949413983
-23693847; 94836425; -13208007; 189208984; 42724609; -439453125; -800000000; -1100000000; 4800000000; 21602735900;1600000000; 2200000000; 3100000000; 5008339750; 1999339810; 50.083372797969325; 19.993398949413983
-25720214; 98681640; -17675781; 433349609; 378417968; 396728515; -800000000; -1000000000; 4600000000; 21865982055;1600000000; 2200000000; 3200000000; 5008339750; 1999339810; 50.083372797969325; 19.993398949413983
-26953125; 93542480; -9655761; -207519531; -24414062; 250244140; -800000000; -1000000000; 4700000000; 21865982055;1600000000; 2200000000; 3200000000; 5008339770; 1999339740; 50.083372797969325; 19.993398949413983
-26281738; 92272949; -11889648; 73242187; 341796875; 85449218; -700000000; -1100000000; 4700000000; 21247119140;1600000000; 2200000000; 3300000000; 5008339770; 1999339740; 50.083372797969325; 19.993398949413983
-26318359; 93627929; -15039062; 85449218; 274658203; 201416015; -800000000; -1100000000; 4700000000; 21602735900;1600000000; 2200000000; 3300000000; 5008339770; 1999339710; 50.083372797969325; 19.993398949413983
-23364257; 94067382; -13073730; -201416015; 231933593; -134277343; -800000000; -1100000000; 4700000000; 21602735900;1600000000; 2200000000; 3400000000; 5008339770; 1999339710; 50.083372797969325; 19.993398949413983
-23535156; 94519042; -15563964; -18310546; -30517578; -30517578; -800000000; -1100000000; 4700000000; 21602735900;1600000000; 2200000000; 3400000000; 5008339710; 1999339660; 50.083372797969325; 19.993398949413983
-23559570; 93383789; -13464355; -12207031; -103759765; 213623046; -800000000; -1100000000; 4600000000; 21602735900;1600000000; 2200000000; 3500000000; 5008339710; 1999339660; 50.083372797969325; 19.993398949413983
-22937011; 95166015; -12744140; -231933593; 18310546; 24414062; -800000000; -1100000000; 4700000000; 21602735900;1600000000; 2200000000; 3500000000; 5008339729; 1999339579; 50.083372797969325; 19.993398949413983
-9252929; 95349121; -32495117; -79345703; 1428222656; 634765625; -2200000000; -400000000; 4600000000; 25969515991;1600000000; 2200000000; 3600000000; 5008339729; 1999339579; 50.083372797969325; 19.993398949413983
-15612792; 91784667; -27136230; -24414062; 457763671; -469970703; -2300000000; -400000000; 4600000000; 26013421630;1600000000; 2200000000; 3600000000; 5008339950; 1999339699; 50.083372797969325; 19.993398949413983
-10583496; 64916992; -32727050; 3204345703; -19757080078; 14636230468; -400000000; -900000000; 4600000000; 20396247863;1600000000; 2200000000; 3700000000; 5008339950; 1999339699; 50.083372797969325; 19.993398949413983
20007324; 136645507; 3881835; -689697265; -10504150390; 8880615234; -800000000; -1300000000; 4900000000; 21756858825;1600000000; 2200000000; 3700000000; 5008339890; 1999339639; 50.083372797969325; 19.993398949413983
10119628; 95629882; -22436523; 109863281; -238037109; -714111328; -700000000; -1900000000; 5000000000; 20022483825;1600000000; 2200000000; 3800000000; 5008339890; 1999339639; 50.083372797969325; 19.993398949413983
6628417; 93579101; -25122070; -115966796; -610351562; 836181640; -600000000; -1800000000; 5100000000; 19843495178;1600000000; 2200000000; 3800000000; 5008339850; 1999339620; 50.083372797969325; 19.993398949413983
7812500; 98791503; -14990234; -738525390; -115966796; -1287841796; -600000000; -2100000000; 5000000000; 19594540405;1600000000; 2200000000; 3900000000; 5008339850; 1999339620; 50.083372797969325; 19.993398949413983
8337402; 100134277; -29516601; 793457031; -805664062; -640869140; -500000000; -2100000000; 5000000000; 19339248657;1600000000; 2200000000; 3900000000; 5008339890; 1999339660; 50.083372797969325; 19.993398949413983
878906; 91564941; -25146484; 2044677734; -4467773437; -4321289062; -900000000; -3400000000; 5100000000; 19482647705;1600000000; 2200000000; 4000000000; 5008339890; 1999339660; 50.083372797969325; 19.993398949413983
-7885742; 90051269; -29931640; 1837158203; -5261230468; 2923583984; -700000000; -3400000000; 5100000000; 19163362121;1600000000; 2200000000; 4000000000; 5008339850; 1999339669; 50.083372797969325; 19.993398949413983
-866699; 86474609; -48193359; 402832031; -2709960937; 964355468; -1600000000; -3000000000; 5200000000; 20807247924;1600000000; 2200000000; 4100000000; 5008339850; 1999339669; 50.083372797969325; 19.993398949413983
3161621; 88464355; -40722656; 231933593; -1245117187; 701904296; -1700000000; -2900000000; 5200000000; 21037913513;1600000000; 2200000000; 4100000000; 5008339870; 1999339669; 50.083372797969325; 19.993398949413983
-15869140; 83972167; -51062011; 109863281; -1391601562; 872802734; -2000000000; -2700000000; 5200000000; 21513417053;1600000000; 2200000000; 4200000000; 5008339870; 1999339669; 50.083372797969325; 19.993398949413983
-3210449; 83508300; -48486328; -201416015; -1397705078; 524902343; -2000000000; -2700000000; 5200000000; 21652886962;1600000000; 2200000000; 4200000000; 5008339840; 1999339669; 50.083372797969325; 19.993398949413983
1501464; 86840820; -46020507; 24414062; 573730468; -292968750; -2000000000; -2500000000; 5100000000; 21865982055;1600000000; 2200000000; 4300000000; 5008339840; 1999339669; 50.083372797969325; 19.993398949413983
-4077148; 85595703; -48828125; -238037109; 482177734; 79345703; -2000000000; -2500000000; 5100000000; 21865982055;1600000000; 2200000000; 4300000000; 5008339860; 1999339690; 50.083372797969325; 19.993398949413983
4968261; 84765625; -46789550; -85449218; -891113281; 775146484; -2000000000; -2700000000; 5200000000; 21652886962;1600000000; 2200000000; 4400000000; 5008339860; 1999339690; 50.083372797969325; 19.993398949413983
1025390; 83459472; -43750000; -134277343; 2105712890; -299072265; -2100000000; -2700000000; 5200000000; 21787496948;1600000000; 2200000000; 4400000000; 5008339950; 1999339720; 50.083372797969325; 19.993398949413983
390625; 80395507; -38146972; 799560546; 4663085937; -817871093; -1800000000; -3000000000; 5200000000; 21096374511;1600000000; 2200000000; 4500000000; 5008339950; 1999339720; 50.08338253288785; 19.99340542880633
21569824; 95788574; -44567871; -97656250; 4956054687; -4296875000; -1700000000; -2800000000; 5200000000; 21126373291;1600000000; 2200000000; 4500000000; 5008339890; 1999339740; 50.08338253288785; 19.99340542880633
-2380371; 89245605; -23937988; 329589843; 5566406250; 671386718; -800000000; -2300000000; 5100000000; 20085444641;1600000000; 2200000000; 4600000000; 5008339890; 1999339740; 50.08338253288785; 19.99340542880633
15844726; 98205566; -26599121; 1379394531; 7989501953; -8435058593; -900000000; -1800000000; 5000000000; 20656504821;1600000000; 2200000000; 4600000000; 5008339860; 1999339759; 50.08338253288785; 19.99340542880633
927734; 104040527; -22717285; -506591796; 256347656; 1629638671; -1700000000; -800000000; 4700000000; 24479887390;1600000000; 2200000000; 4700000000; 5008339860; 1999339759; 50.08338253288785; 19.99340542880633
4907226; 100146484; -7678222; -964355468; -1330566406; 408935546; -1900000000; -800000000; 4600000000; 24716635131;1600000000; 2200000000; 4700000000; 5008339789; 1999339729; 50.08338253288785; 19.99340542880633
-6811523; 86132812; -21679687; -640869140; 2258300781; -1196289062; -1100000000; -600000000; 4600000000; 24138954162;1600000000; 2200000000; 4800000000; 5008339789; 1999339729; 50.08338253288785; 19.99340542880633
122070; 91796875; -20495605; -567626953; 4107666015; -1751708984; -1200000000; -500000000; 4600000000; 24738012695;1600000000; 2200000000; 4800000000; 5008339750; 1999339690; 50.08338253288785; 19.99340542880633
-6726074; 97229003; -17687988; 891113281; 1098632812; -512695312; -1900000000; -500000000; 4400000000; 25525643920;1600000000; 2200000000; 4900000000; 5008339750; 1999339690; 50.08338253288785; 19.99340542880633
-5126953; 95349121; -14318847; 158691406; -311279296; 415039062; -1900000000; -400000000; 4400000000; 25811135864;1600000000; 2200000000; 4900000000; 5008339770; 1999339699; 50.08338253288785; 19.99340542880633
-7592773; 95349121; -22436523; -195312500; -219726562; -567626953; -1800000000; -500000000; 4500000000; 25447587585;1600000000; 2200000000; 5000000000; 5008339770; 1999339699; 50.08338253288785; 19.99340542880633
-2124023; 96899414; -14978027; -268554687; -225830078; 573730468; -1800000000; -500000000; 4400000000; 25447587585;1600000000; 2200000000; 5000000000; 5008339789; 1999339770; 50.08338253288785; 19.99340542880633
-7885742; 95666503; -19860839; -305175781; 628662109; -537109375; -1800000000; -500000000; 4500000000; 25447587585;1600000000; 2200000000; 5100000000; 5008339789; 1999339770; 50.08338253288785; 19.99340542880633
-13903808; 94042968; -19812011; -488281250; -219726562; -469970703; -1700000000; -600000000; 4500000000; 25055996704;1600000000; 2200000000; 5100000000; 5008339870; 1999339789; 50.08338253288785; 19.99340542880633
-9753417; 96435546; -17761230; 292968750; 665283203; 207519531; -1700000000; -700000000; 4600000000; 24761987304;1600000000; 2200000000; 5200000000; 5008339870; 1999339789; 50.08338253288785; 19.99340542880633
-10754394; 96386718; -17468261; 109863281; 128173828; -103759765; -1700000000; -700000000; 4600000000; 24761987304;1600000000; 2200000000; 5200000000; 5008339800; 1999339810; 50.08338253288785; 19.99340542880633
-9191894; 96862792; -17761230; -262451171; 274658203; -616455078; -1700000000; -600000000; 4600000000; 25055996704;1600000000; 2200000000; 5300000000; 5008339800; 1999339810; 50.08338253288785; 19.99340542880633
-11145019; 96057128; -16296386; -262451171; -164794921; -6103515; -1700000000; -600000000; 4500000000; 25055996704;1600000000; 2200000000; 5300000000; 5008339830; 1999339780; 50.08338253288785; 19.99340542880633
-10485839; 96057128; -12011718; 6103515; -42724609; -213623046; -1700000000; -700000000; 4600000000; 24761987304;1600000000; 2200000000; 5400000000; 5008339830; 1999339780; 50.08338253288785; 19.99340542880633
-9899902; 96533203; -14624023; -213623046; -36621093; -262451171; -1700000000; -800000000; 4600000000; 24479887390;1600000000; 2200000000; 5400000000; 5008339850; 1999339729; 50.08338253288785; 19.99340542880633
-10876464; 96936035; -13195800; 18310546; -128173828; 170898437; -1700000000; -800000000; 4600000000; 24479887390;1600000000; 2200000000; 5500000000; 5008339850; 1999339729; 50.08338253288785; 19.99340542880633
-9655761; 96423339; -12695312; 30517578; 12207031; -103759765; -1700000000; -800000000; 4600000000; 24479887390;1600000000; 2200000000; 5500000000; 5008339810; 1999339740; 50.08338253288785; 19.99340542880633
-9472656; 96850585; -13037109; 79345703; 140380859; 30517578; -1800000000; -800000000; 4600000000; 24603752136;1600000000; 2200000000; 5600000000; 5008339810; 1999339740; 50.08338253288785; 19.99340542880633
-11328125; 95764160; -11425781; 6103515; -79345703; 54931640; -1800000000; -800000000; 4600000000; 24603752136;1600000000; 2200000000; 5600000000; 5008339720; 1999339729; 50.08338253288785; 19.99340542880633
-8972167; 98413085; -15075683; 146484375; -36621093; -268554687; -1800000000; -800000000; 4700000000; 24603752136;1600000000; 2200000000; 5700000000; 5008339720; 1999339729; 50.08338253288785; 19.99340542880633
-11254882; 95751953; -11511230; 177001953; 6103515; 103759765; -1800000000; -800000000; 4600000000; 24603752136;1600000000; 2200000000; 5700000000; 5008339690; 1999339750; 50.08338253288785; 19.99340542880633
-11389160; 96557617; -12353515; 67138671; -146484375; -384521484; -1800000000; -800000000; 4600000000; 24603752136;1600000000; 2200000000; 5800000000; 5008339690; 1999339750; 50.08338253288785; 19.99340542880633
-11572265; 95300292; -10424804; 6103515; -152587890; -61035156; -1700000000; -900000000; 4600000000; 24210272216;1600000000; 2200000000; 5800000000; 5008339700; 1999339699; 50.08338253288785; 19.99340542880633
-11206054; 97644042; -14953613; -48828125; 12207031; -61035156; -1700000000; -800000000; 4600000000; 24479887390;1600000000; 2200000000; 5900000000; 5008339700; 1999339699; 50.08338253288785; 19.99340542880633
-10070800; 96643066; -14282226; 146484375; -134277343; 67138671; -1700000000; -800000000; 4600000000; 24479887390;1600000000; 2200000000; 5900000000; 5008339760; 1999339720; 50.08338253288785; 19.99340542880633
-9362792; 96044921; -12902832; -48828125; 207519531; -36621093; -1700000000; -700000000; 4500000000; 24761987304;1600000000; 2300000000; 0; 5008339760; 1999339720; 50.08338253288785; 19.99340542880633
-12255859; 95654296; -13403320; 79345703; -61035156; 305175781; -1700000000; -800000000; 4600000000; 24479887390;1600000000; 2300000000; 0; 5008339810; 1999339710; 50.08338253288785; 19.99340542880633
-11669921; 97314453; -14404296; -91552734; -30517578; -207519531; -1700000000; -700000000; 4600000000; 24761987304;1600000000; 2300000000; 100000000; 5008339810; 1999339710; 50.08338253288785; 19.99340542880633
-9912109; 98229980; -14941406; 30517578; 103759765; -109863281; -1700000000; -700000000; 4600000000; 24761987304;1600000000; 2300000000; 100000000; 5008339800; 1999339699; 50.08338253288785; 19.99340542880633
-10559082; 96472167; -12194824; -73242187; 115966796; 0; -1700000000; -800000000; 4600000000; 24479887390;1600000000; 2300000000; 200000000; 5008339800; 1999339699; 50.08338253288785; 19.99340542880633
-11401367; 95739746; -12524414; 54931640; 177001953; -201416015; -1700000000; -800000000; 4700000000; 24479887390;1600000000; 2300000000; 200000000; 5008339800; 1999339699; 50.08338253288785; 19.99340542880633
-11254882; 96423339; -14392089; -48828125; 140380859; -158691406; -1700000000; -800000000; 4600000000; 24479887390;1600000000; 2300000000; 300000000; 5008339800; 1999339699; 50.08338253288785; 19.99340542880633
-11950683; 96008300; -12890625; 24414062; 91552734; 12207031; -1800000000; -800000000; 4600000000; 24603752136;1600000000; 2300000000; 300000000; 5008339840; 1999339680; 50.08338253288785; 19.99340542880633
-11425781; 96630859; -14233398; -122070312; 30517578; 115966796; -1700000000; -800000000; 4600000000; 24479887390;1600000000; 2300000000; 400000000; 5008339840; 1999339680; 50.08338253288785; 19.99340542880633
-15539550; 94726562; -13415527; -73242187; 103759765; -170898437; -1700000000; -800000000; 4600000000; 24479887390;1600000000; 2300000000; 400000000; 5008339890; 1999339639; 50.08338253288785; 19.99340542880633
-14392089; 96301269; -14648437; -30517578; 146484375; 79345703; -1800000000; -700000000; 4700000000; 24874949645;1600000000; 2300000000; 500000000; 5008339890; 1999339639; 50.08338253288785; 19.99340542880633
-11169433; 96691894; -14099121; 42724609; -213623046; 177001953; -1700000000; -700000000; 4600000000; 24761987304;1600000000; 2300000000; 500000000; 5008339940; 1999339639; 50.08338253288785; 19.99340542880633
-11291503; 96997070; -15209960; -18310546; -6103515; 30517578; -1800000000; -700000000; 4600000000; 24603752136;1600000000; 2300000000; 600000000; 5008339940; 1999339639; 50.08338253288785; 19.99340542880633
-11120605; 97473144; -14990234; -54931640; 103759765; 103759765; -1800000000; -700000000; 4600000000; 24874949645;1600000000; 2300000000; 600000000; 5008339950; 1999339630; 50.08338253288785; 19.99340542880633
-13256835; 96337890; -15563964; -48828125; -48828125; -115966796; -1800000000; -700000000; 4600000000; 24874949645;1600000000; 2300000000; 700000000; 5008339950; 1999339630; 50.08338253288785; 19.99340542880633
-14257812; 96582031; -15478515; 12207031; -109863281; -48828125; -1800000000; -700000000; 4600000000; 24874949645;1600000000; 2300000000; 700000000; 5008339890; 1999339549; 50.08338253288785; 19.99340542880633
-11779785; 95849609; -14062500; -79345703; -85449218; 97656250; -1800000000; -700000000; 4600000000; 24874949645;1600000000; 2300000000; 800000000; 5008339890; 1999339549; 50.08338253288785; 19.99340542880633
-12561035; 95861816; -12988281; -24414062; -67138671; -122070312; -1800000000; -700000000; 4600000000; 24874949645;1600000000; 2300000000; 800000000; 5008340000; 1999339560; 50.08338253288785; 19.99340542880633
-14050292; 95690917; -15258789; -146484375; -18310546; 79345703; -1800000000; -700000000; 4500000000; 24874949645;1600000000; 2300000000; 900000000; 5008340000; 1999339560; 50.08338253288785; 19.99340542880633
-12695312; 95959472; -14379882; 36621093; 73242187; 85449218; -1800000000; -700000000; 4500000000; 24874949645;1600000000; 2300000000; 900000000; 5008340050; 1999339579; 50.08338253288785; 19.99340542880633
-13562011; 94628906; -14428710; -183105468; -122070312; 36621093; -1800000000; -700000000; 4500000000; 24874949645;1600000000; 2300000000; 1000000000; 5008340050; 1999339579; 50.08338253288785; 19.99340542880633
-11535644; 96289062; -15551757; -231933593; -195312500; -67138671; -1800000000; -700000000; 4500000000; 25156503295;1600000000; 2300000000; 1000000000; 5008340110; 1999339570; 50.08338253288785; 19.99340542880633
-10522460; 96362304; -14318847; 18310546; 0; 30517578; -1800000000; -700000000; 4600000000; 24874949645;1600000000; 2300000000; 1100000000; 5008340110; 1999339570; 50.08338253288785; 19.99340542880633
-10620117; 95520019; -14501953; 61035156; 36621093; -36621093; -1800000000; -700000000; 4500000000; 24874949645;1600000000; 2300000000; 1100000000; 5008340159; 1999339549; 50.08338253288785; 19.99340542880633
-13000488; 96032714; -17150878; 61035156; -67138671; -238037109; -1800000000; -600000000; 4500000000; 25156503295;1600000000; 2300000000; 1200000000; 5008340159; 1999339549; 50.08338253288785; 19.99340542880633
-7824707; 94201660; -14721679; 347900390; -506591796; 421142578; -1900000000; -600000000; 4500000000; 25247441101;1600000000; 2300000000; 1200000000; 5008340200; 1999339560; 50.08338253288785; 19.99340542880633
-8105468; 96850585; -16174316; 0; -30517578; -85449218; -1800000000; -500000000; 4400000000; 25447587585;1600000000; 2300000000; 1300000000; 5008340200; 1999339560; 50.08338253288785; 19.99340542880633
-8398437; 96191406; -17846679; 24414062; 195312500; 61035156; -1800000000; -500000000; 4400000000; 25447587585;1600000000; 2300000000; 1300000000; 5008340240; 1999339570; 50.08338253288785; 19.99340542880633
-11682128; 95776367; -18847656; -79345703; -164794921; -85449218; -1800000000; -500000000; 4500000000; 25447587585;1600000000; 2300000000; 1400000000; 5008340240; 1999339570; 50.08338253288785; 19.99340542880633
-9716796; 96386718; -17907714; -103759765; -238037109; 54931640; -1700000000; -500000000; 4400000000; 25447587585;1600000000; 2300000000; 1400000000; 5008340399; 1999339699; 50.08338253288785; 19.99340542880633
-9741210; 96533203; -17419433; -79345703; -85449218; -122070312; -1800000000; -500000000; 4400000000; 25447587585;1600000000; 2300000000; 1500000000; 5008340399; 1999339699; 50.08338253288785; 19.99340542880633
-8850097; 95922851; -17626953; 6103515; 12207031; -54931640; -1700000000; -500000000; 4500000000; 25361047363;1600000000; 2300000000; 1500000000; 5008340500; 1999339810; 50.08338253288785; 19.99340542880633
-9765625; 95520019; -16076660; -91552734; -103759765; -30517578; -1700000000; -600000000; 4400000000; 25055996704;1600000000; 2300000000; 1600000000; 5008340500; 1999339810; 50.08338253288785; 19.99340542880633
-9924316; 96093750; -15893554; -79345703; -128173828; -103759765; -1800000000; -600000000; 4500000000; 25156503295;1600000000; 2300000000; 1600000000; 5008340610; 1999339960; 50.08338253288785; 19.99340542880633
-9838867; 96264648; -16210937; 30517578; 18310546; -67138671; -1800000000; -500000000; 4400000000; 25447587585;1600000000; 2300000000; 1700000000; 5008340610; 1999339960; 50.08338253288785; 19.99340542880633
-12121582; 96166992; -17126464; 30517578; 219726562; -79345703; -1700000000; -600000000; 4400000000; 25055996704;1600000000; 2300000000; 1700000000; 5008340640; 1999340059; 50.08338253288785; 19.99340542880633
-8666992; 96606445; -17053222; 61035156; -61035156; 61035156; -1800000000; -600000000; 4500000000; 25156503295;1600000000; 2300000000; 1800000000; 5008340640; 1999340059; 50.08338253288785; 19.99340542880633
-11120605; 95751953; -16796875; -146484375; -85449218; 0; -1800000000; -600000000; 4500000000; 25156503295;1600000000; 2300000000; 1800000000; 5008340610; 1999340029; 50.08338253288785; 19.99340542880633
-8947753; 95483398; -16516113; -109863281; 122070312; -48828125; -1800000000; -500000000; 4500000000; 25447587585;1600000000; 2300000000; 1900000000; 5008340610; 1999340029; 50.08338253288785; 19.99340542880633
-9265136; 95117187; -15270996; -109863281; 103759765; 79345703; -1800000000; -500000000; 4400000000; 25447587585;1600000000; 2300000000; 1900000000; 5008340650; 1999340009; 50.08338253288785; 19.99340542880633
-10839843; 95129394; -18981933; -164794921; 268554687; -292968750; -1800000000; -500000000; 4500000000; 25447587585;1600000000; 2300000000; 2000000000; 5008340650; 1999340009; 50.08338253288785; 19.99340542880633
-8630371; 96594238; -18701171; -122070312; -97656250; -30517578; -1800000000; -500000000; 4400000000; 25447587585;1600000000; 2300000000; 2000000000; 5008340790; 1999340099; 50.08338253288785; 19.99340542880633
-12390136; 95068359; -17175292; 24414062; -128173828; 103759765; -1800000000; -500000000; 4500000000; 25447587585;1600000000; 2300000000; 2100000000; 5008340790; 1999340099; 50.08338253288785; 19.99340542880633
-11450195; 96386718; -17541503; -164794921; -244140625; -42724609; -1700000000; -500000000; 4400000000; 25361047363;1600000000; 2300000000; 2100000000; 5008340860; 1999340159; 50.08338253288785; 19.99340542880633
-15783691; 92700195; -21081542; -140380859; -659179687; 555419921; -1800000000; -600000000; 4500000000; 25156503295;1600000000; 2300000000; 2200000000; 5008340860; 1999340159; 50.08338253288785; 19.99340542880633
-6079101; 99670410; -15808105; 329589843; -714111328; 262451171; -1800000000; -500000000; 4400000000; 25447587585;1600000000; 2300000000; 2200000000; 5008340769; 1999340149; 50.08338253288785; 19.99340542880633
-9265136; 95788574; -17736816; -128173828; 189208984; 24414062; -1800000000; -500000000; 4400000000; 25447587585;1600000000; 2300000000; 2300000000; 5008340769; 1999340149; 50.08338253288785; 19.99340542880633
-10852050; 95434570; -17822265; -97656250; 213623046; 189208984; -1800000000; -500000000; 4400000000; 25447587585;1600000000; 2300000000; 2300000000; 5008340889; 1999340219; 50.08338253288785; 19.99340542880633
-9460449; 97631835; -20043945; 54931640; 79345703; -97656250; -1800000000; -500000000; 4400000000; 25447587585;1600000000; 2300000000; 2400000000; 5008340889; 1999340219; 50.08338253288785; 19.99340542880633
-10632324; 95092773; -16503906; -6103515; -73242187; -61035156; -1900000000; -500000000; 4400000000; 25525643920;1600000000; 2300000000; 2400000000; 5008340900; 1999340290; 50.08338253288785; 19.99340542880633
-10485839; 96398925; -17309570; 24414062; -311279296; 79345703; -1800000000; -500000000; 4500000000; 25447587585;1600000000; 2300000000; 2500000000; 5008340900; 1999340290; 50.08338253288785; 19.99340542880633
-11035156; 95019531; -15344238; -115966796; -158691406; 54931640; -1800000000; -600000000; 4400000000; 25156503295;1600000000; 2300000000; 2500000000; 5008341140; 1999340420; 50.08338253288785; 19.99340542880633
-11352539; 95996093; -16320800; -36621093; -30517578; -6103515; -1800000000; -600000000; 4600000000; 25156503295;1600000000; 2300000000; 2600000000; 5008341140; 1999340420; 50.08338253288785; 19.99340542880633
-10668945; 95837402; -16027832; 67138671; -97656250; -97656250; -1800000000; -600000000; 4400000000; 25156503295;1600000000; 2300000000; 2600000000; 5008341020; 1999340380; 50.08338253288785; 19.99340542880633
-11889648; 95898437; -16638183; -85449218; 61035156; -79345703; -1800000000; -600000000; 4500000000; 25156503295;1600000000; 2300000000; 2700000000; 5008341020; 1999340380; 50.08338253288785; 19.99340542880633
-10070800; 95495605; -14807128; -48828125; 24414062; 36621093; -1700000000; -700000000; 4500000000; 24761987304;1600000000; 2300000000; 2700000000; 5008341129; 1999340459; 50.08338253288785; 19.99340542880633
-11413574; 96337890; -15209960; -6103515; 115966796; -134277343; -1800000000; -700000000; 4500000000; 24874949645;1600000000; 2300000000; 2800000000; 5008341129; 1999340459; 50.08338253288785; 19.99340542880633
-9924316; 96862792; -16174316; 42724609; 91552734; -91552734; -1800000000; -700000000; 4500000000; 24874949645;1600000000; 2300000000; 2800000000; 5008341170; 1999340530; 50.08338253288785; 19.99340542880633
-8508300; 94665527; -15979003; 341796875; 579833984; -701904296; -1900000000; -700000000; 4600000000; 24977513122;1600000000; 2300000000; 2900000000; 5008341170; 1999340530; 50.08338253288785; 19.99340542880633
-10046386; 100085449; -21215820; 408935546; 421142578; 97656250; -1900000000; -700000000; 4600000000; 24977513122;1600000000; 2300000000; 2900000000; 5008341340; 1999340650; 50.08338253288785; 19.99340542880633
-12109375; 95190429; -16174316; 48828125; 0; -12207031; -1800000000; -700000000; 4400000000; 24874949645;1600000000; 2300000000; 3000000000; 5008341340; 1999340650; 50.08338253288785; 19.99340542880633
-12182617; 95544433; -15527343; -18310546; -158691406; 48828125; -1800000000; -600000000; 4500000000; 25156503295;1600000000; 2300000000; 3000000000; 5008341520; 1999340680; 50.08338253288785; 19.99340542880633
-11389160; 97204589; -18005371; -122070312; -67138671; -97656250; -1800000000; -600000000; 4600000000; 25156503295;1600000000; 2300000000; 3100000000; 5008341520; 1999340680; 50.08338253288785; 19.99340542880633
-11389160; 96472167; -17834472; -30517578; -122070312; -48828125; -1800000000; -700000000; 4600000000; 24874949645;1600000000; 2300000000; 3100000000; 5008341750; 1999340680; 50.08338253288785; 19.99340542880633
-12939453; 96459960; -16772460; -30517578; -164794921; -146484375; -1800000000; -700000000; 4500000000; 24874949645;1600000000; 2300000000; 3200000000; 5008341750; 1999340680; 50.08338253288785; 19.99340542880633
-12756347; 96313476; -16137695; -18310546; -195312500; -73242187; -1900000000; -700000000; 4600000000; 24977513122;1600000000; 2300000000; 3200000000; 5008341790; 1999340680; 50.08338253288785; 19.99340542880633
-13232421; 95910644; -15710449; -73242187; -79345703; -36621093; -1800000000; -700000000; 4500000000; 24874949645;1600000000; 2300000000; 3300000000; 5008341790; 1999340680; 50.08338253288785; 19.99340542880633
-14111328; 94860839; -13940429; -128173828; -97656250; -24414062; -1800000000; -700000000; 4600000000; 24874949645;1600000000; 2300000000; 3300000000; 5008341850; 1999340680; 50.08338253288785; 19.99340542880633
-11254882; 96716308; -15795898; 518798828; -439453125; 360107421; -1800000000; -600000000; 4600000000; 25156503295;1600000000; 2300000000; 3400000000; 5008341850; 1999340680; 50.08338253288785; 19.99340542880633
-11779785; 96069335; -15429687; 128173828; -18310546; 67138671; -2200000000; -800000000; 4700000000; 25001689147;1600000000; 2400000000; 100000000; 5008341900; 1999340380; 50.083411674114096; 19.993413311377456
-13940429; 95800781; -15661621; 24414062; 6103515; 18310546; -2200000000; -700000000; 4600000000; 25234985351;1600000000; 2400000000; 100000000; 5008341799; 1999340260; 50.083411674114096; 19.993413311377456
-13232421; 96667480; -16247558; 378417968; -183105468; 207519531; -2200000000; -700000000; 4600000000; 25234985351;1600000000; 2400000000; 200000000; 5008341799; 1999340260; 50.083411674114096; 19.993413311377456
-13818359; 96899414; -16699218; -225830078; -164794921; -36621093; -2100000000; -700000000; 4600000000; 25156503295;1600000000; 2400000000; 200000000; 5008341670; 1999340189; 50.083411674114096; 19.993413311377456
-15722656; 94812011; -9948730; 402832031; 500488281; 476074218; -2200000000; -1000000000; 4700000000; 24555604553;1600000000; 2400000000; 300000000; 5008341670; 1999340189; 50.083411674114096; 19.993413311377456
-12731933; 96972656; -9924316; 164794921; 207519531; 170898437; -2300000000; -900000000; 4700000000; 24862937927;1600000000; 2400000000; 300000000; 5008341559; 1999340129; 50.083411674114096; 19.993413311377456
-7885742; 96801757; -12841796; -207519531; 451660156; 48828125; -2400000000; -800000000; 4700000000; 25156503295;1600000000; 2400000000; 400000000; 5008341559; 1999340129; 50.083411674114096; 19.993413311377456
-9497070; 95471191; -11572265; -85449218; 146484375; 85449218; -2400000000; -900000000; 4600000000; 24944393920;1600000000; 2400000000; 400000000; 5008341450; 1999340029; 50.083411674114096; 19.993413311377456
-7238769; 96606445; -12341308; -42724609; 18310546; -36621093; -2500000000; -800000000; 4700000000; 25225534057;1600000000; 2400000000; 500000000; 5008341450; 1999340029; 50.083411674114096; 19.993413311377456
-7348632; 96813964; -12988281; -140380859; -54931640; -48828125; -2500000000; -800000000; 4700000000; 25225534057;1600000000; 2400000000; 500000000; 5008341380; 1999339960; 50.083411674114096; 19.993413311377456
-7092285; 97229003; -12817382; -85449218; 67138671; -122070312; -2500000000; -800000000; 4700000000; 25225534057;1600000000; 2400000000; 600000000; 5008341380; 1999339960; 50.083411674114096; 19.993413311377456
-8337402; 96386718; -12463378; 6103515; 36621093; 42724609; -2500000000; -800000000; 4700000000; 25225534057;1600000000; 2400000000; 600000000; 5008341330; 1999339860; 50.083411674114096; 19.993413311377456
-2673339; 100720214; -11132812; 225830078; -396728515; -799560546; -2500000000; -800000000; 4700000000; 25225534057;1600000000; 2400000000; 700000000; 5008341330; 1999339860; 50.083411674114096; 19.993413311377456
-8276367; 103991699; -7592773; 3784179687; 213623046; -1239013671; -2400000000; -800000000; 4600000000; 25156503295;1600000000; 2400000000; 700000000; 5008341300; 1999339759; 50.083411674114096; 19.993413311377456
-11328125; 95397949; -31884765; 671386718; 695800781; -891113281; -1600000000; -100000000; 4400000000; 26642367553;1600000000; 2400000000; 800000000; 5008341300; 1999339759; 50.083411674114096; 19.993413311377456
-19799804; 85778808; -37194824; 1098632812; 177001953; 384521484; -1400000000; 0; 4200000000; 27000000000;1600000000; 2400000000; 800000000; 5008341240; 1999339680; 50.083411674114096; 19.993413311377456
-14489746; 84619140; -34814453; 2886962890; 11151123046; 1623535156; -1900000000; 200000000; 4200000000; 27600900268;1600000000; 2400000000; 900000000; 5008341240; 1999339680; 50.08340502545624; 19.993397818956915
15893554; 104541015; -43884277; 311279296; 610351562; -823974609; -2500000000; 400000000; 4000000000; 27909027099;1600000000; 2400000000; 900000000; 5008341170; 1999339669; 50.08340502545624; 19.993397818956915
2905273; 97387695; 5273437; -1660156250; -5096435546; 1422119140; -3100000000; -1000000000; 4500000000; 25212130737;1600000000; 2400000000; 1000000000; 5008341170; 1999339669; 50.08340502545624; 19.993397818956915
1843261; 83520507; 10620117; -1037597656; -4296875000; 2941894531; -2900000000; -1000000000; 4700000000; 25097441101;1600000000; 2400000000; 1000000000; 5008341100; 1999339669; 50.08340502545624; 19.993397818956915
646972; 93115234; -1550292; -402832031; 1141357421; -360107421; -2500000000; -1200000000; 4900000000; 24435900878;1600000000; 2400000000; 1100000000; 5008341100; 1999339669; 50.08340502545624; 19.993397818956915
3234863; 96044921; -1086425; 683593750; 134277343; -225830078; -2600000000; -1300000000; 4900000000; 24343496704;1600000000; 2400000000; 1100000000; 5008341060; 1999339650; 50.08340502545624; 19.993397818956915
20849609; 100573730; -16528320; 1788330078; 4333496093; -378417968; -3200000000; -800000000; 4500000000; 25596372985;1600000000; 2400000000; 1200000000; 5008341060; 1999339650; 50.08340502545624; 19.993397818956915
9741210; 101635742; 2819824; 860595703; 2825927734; 463867187; -3400000000; -700000000; 4300000000; 25836636352;1600000000; 2400000000; 1200000000; 5008341050; 1999339579; 50.08340502545624; 19.993397818956915
-3198242; 90173339; -7226562; -1855468750; 2319335937; -616455078; -3900000000; -1100000000; 4900000000; 25424880981;1600000000; 2400000000; 1300000000; 5008341050; 1999339579; 50.08340502545624; 19.993397818956915
16125488; 99792480; -10021972; 1263427734; 933837890; -616455078; -3900000000; -1200000000; 4900000000; 25289726257;1600000000; 2400000000; 1300000000; 5008340990; 1999339590; 50.08340502545624; 19.993397818956915
7836914; 99243164; -12609863; -439453125; -1574707031; 946044921; -4100000000; -1000000000; 4600000000; 25629302978;1600000000; 2400000000; 1400000000; 5008340990; 1999339590; 50.08340502545624; 19.993397818956915
8666992; 99267578; -9411621; 354003906; -1422119140; 1165771484; -4200000000; -900000000; 4300000000; 25790524291;1600000000; 2400000000; 1400000000; 5008340960; 1999339590; 50.08340502545624; 19.993397818956915
10668945; 97131347; -15185546; -360107421; -433349609; 85449218; -4200000000; -500000000; 4000000000; 26186990356;1600000000; 2400000000; 1500000000; 5008340960; 1999339590; 50.08340502545624; 19.993397818956915
9741210; 94384765; -12341308; -219726562; -402832031; 341796875; -4200000000; -700000000; 4100000000; 26053765869;1600000000; 2400000000; 1500000000; 5008340920; 1999339450; 50.08340502545624; 19.993397818956915
12048339; 94519042; -13916015; -250244140; -48828125; 292968750; -4400000000; -400000000; 4000000000; 26480557250;1600000000; 2400000000; 1600000000; 5008340920; 1999339450; 50.08340502545624; 19.993397818956915
12341308; 96337890; -14953613; 0; -122070312; -12207031; -4400000000; -400000000; 3800000000; 26480557250;1600000000; 2400000000; 1600000000; 5008340920; 1999339419; 50.08340502545624; 19.993397818956915
11608886; 93872070; -17724609; -158691406; -244140625; 250244140; -4300000000; -400000000; 4000000000; 26468545532;1600000000; 2400000000; 1700000000; 5008340920; 1999339419; 50.08340502545624; 19.993397818956915
11108398; 95043945; -15283203; -207519531; 73242187; 762939453; -4300000000; -300000000; 3900000000; 26600909423;1600000000; 2400000000; 1700000000; 5008340940; 1999339480; 50.08340502545624; 19.993397818956915
15832519; 95227050; -16149902; 103759765; 128173828; -299072265; -4200000000; -100000000; 3600000000; 26863604736;1600000000; 2400000000; 1800000000; 5008340940; 1999339480; 50.08340502545624; 19.993397818956915
18017578; 96093750; -18566894; -48828125; -183105468; -378417968; -4100000000; -200000000; 3700000000; 26720730590;1600000000; 2400000000; 1800000000; 5008340940; 1999339380; 50.08340502545624; 19.993397818956915
13085937; 96118164; -13012695; 286865234; 384521484; 73242187; -4100000000; -200000000; 3700000000; 26720730590;1600000000; 2400000000; 1900000000; 5008340940; 1999339380; 50.08340502545624; 19.993397818956915
19799804; 93762207; -22521972; -317382812; -445556640; -30517578; -4100000000; -200000000; 3700000000; 26720730590;1600000000; 2400000000; 1900000000; 5008340990; 1999339600; 50.08340502545624; 19.993397818956915
19079589; 95935058; -12524414; -445556640; 85449218; -24414062; -4100000000; -300000000; 3800000000; 26581509399;1600000000; 2400000000; 2000000000; 5008340990; 1999339600; 50.08340502545624; 19.993397818956915
17553710; 94604492; -15576171; -280761718; -85449218; -115966796; -4000000000; -300000000; 3800000000; 26571081542;1600000000; 2400000000; 2000000000; 5008341030; 1999339690; 50.08340502545624; 19.993397818956915
19238281; 96362304; -14868164; -488281250; 97656250; -476074218; -4000000000; -300000000; 3900000000; 26571081542;1600000000; 2400000000; 2100000000; 5008341030; 1999339690; 50.08340502545624; 19.993397818956915
17077636; 96142578; -14074707; 347900390; 244140625; -244140625; -4000000000; -400000000; 3800000000; 26428939819;1600000000; 2400000000; 2100000000; 5008341040; 1999339579; 50.08340502545624; 19.993397818956915
16308593; 94067382; -16125488; -354003906; -341796875; 67138671; -4000000000; -200000000; 3800000000; 26713760375;1600000000; 2400000000; 2200000000; 5008341040; 1999339579; 50.08339560599841; 19.993398371224778
17785644; 94348144; -15905761; 103759765; -360107421; 54931640; -4100000000; -200000000; 3800000000; 26720730590;1600000000; 2400000000; 2200000000; 5008341020; 1999339359; 50.08339560599841; 19.993398371224778
15502929; 94836425; -16259765; -512695312; -311279296; 115966796; -4000000000; -200000000; 3800000000; 26713760375;1600000000; 2400000000; 2300000000; 5008341020; 1999339359; 50.08339560599841; 19.993398371224778
17810058; 94396972; -10693359; 311279296; 213623046; 73242187; -4000000000; -300000000; 3800000000; 26571081542;1600000000; 2400000000; 2300000000; 5008341080; 1999339429; 50.08339560599841; 19.993398371224778
16711425; 95751953; -12780761; -744628906; -30517578; 91552734; -4000000000; -200000000; 3800000000; 26713760375;1600000000; 2400000000; 2400000000; 5008341080; 1999339429; 50.08339560599841; 19.993398371224778
15625000; 95727539; -18994140; -30517578; 183105468; -347900390; -4000000000; -300000000; 3900000000; 26571081542;1600000000; 2400000000; 2400000000; 5008341120; 1999339770; 50.08339560599841; 19.993398371224778
18017578; 97180175; -14477539; 183105468; -97656250; -122070312; -4000000000; -300000000; 3800000000; 26571081542;1600000000; 2400000000; 2500000000; 5008341120; 1999339770; 50.08339560599841; 19.993398371224778
16418457; 95727539; -16015625; 146484375; 42724609; -213623046; -4000000000; -300000000; 3800000000; 26571081542;1600000000; 2400000000; 2500000000; 5008341129; 1999339810; 50.08339560599841; 19.993398371224778
15014648; 93347167; -13305664; -408935546; -122070312; -195312500; -3900000000; -200000000; 3900000000; 26706433105;1600000000; 2400000000; 2600000000; 5008341129; 1999339810; 50.08339560599841; 19.993398371224778
17114257; 94946289; -14160156; 115966796; -36621093; 146484375; -3900000000; -200000000; 3800000000; 26706433105;1600000000; 2400000000; 2600000000; 5008341150; 1999339560; 50.08339560599841; 19.993398371224778
15466308; 94128417; -18994140; 67138671; -219726562; 146484375; -3900000000; -200000000; 3800000000; 26706433105;1600000000; 2400000000; 2700000000; 5008341150; 1999339560; 50.08339560599841; 19.993398371224778
17187500; 94262695; -13916015; 12207031; -323486328; 372314453; -3900000000; -200000000; 3800000000; 26706433105;1600000000; 2400000000; 2700000000; 5008341230; 1999339389; 50.08339560599841; 19.993398371224778
18615722; 94824218; -15026855; -79345703; -122070312; 195312500; -3900000000; -200000000; 3800000000; 26713760375;1600000000; 2400000000; 2800000000; 5008341230; 1999339389; 50.08339560599841; 19.993398371224778
16772460; 96154785; -17187500; -36621093; -48828125; -128173828; -3900000000; -200000000; 3900000000; 26706433105;1600000000; 2400000000; 2800000000; 5008341120; 1999339329; 50.08339560599841; 19.993398371224778
15966796; 95385742; -21142578; -366210937; -567626953; -42724609; -3900000000; -200000000; 3900000000; 26706433105;1600000000; 2400000000; 2900000000; 5008341120; 1999339329; 50.08339560599841; 19.993398371224778
13854980; 93823242; -17895507; -567626953; -1019287109; 341796875; -3800000000; -200000000; 4000000000; 26698718261;1600000000; 2400000000; 2900000000; 5008341030; 1999339530; 50.08339560599841; 19.993398371224778
16503906; 95324707; -18725585; -36621093; 6103515; 103759765; -3800000000; -200000000; 3900000000; 26698718261;1600000000; 2400000000; 3000000000; 5008341030; 1999339530; 50.08339560599841; 19.993398371224778
16455078; 95275878; -17382812; -122070312; 30517578; 73242187; -3800000000; -200000000; 3900000000; 26698718261;1600000000; 2400000000; 3000000000; 5008341080; 1999339609; 50.08339560599841; 19.993398371224778
14343261; 95007324; -21484375; -292968750; -842285156; 219726562; -3800000000; -200000000; 3900000000; 26698718261;1600000000; 2400000000; 3100000000; 5008341080; 1999339609; 50.08339560599841; 19.993398371224778
11083984; 93737792; -18261718; -433349609; -683593750; 268554687; -3700000000; -200000000; 3900000000; 26690594482;1600000000; 2400000000; 3100000000; 5008341030; 1999339429; 50.08339560599841; 19.993398371224778
14990234; 95288085; -16296386; -61035156; -115966796; 146484375; -3800000000; -200000000; 4000000000; 26698718261;1600000000; 2400000000; 3200000000; 5008341030; 1999339429; 50.08339560599841; 19.993398371224778
12280273; 94458007; -18164062; -73242187; 67138671; 91552734; -3700000000; -200000000; 3900000000; 26698718261;1600000000; 2400000000; 3200000000; 5008340910; 1999339570; 50.08339560599841; 19.993398371224778
16906738; 93493652; -14343261; 610351562; 1196289062; -341796875; -3800000000; -200000000; 3800000000; 26698718261;1600000000; 2400000000; 3300000000; 5008340910; 1999339570; 50.08339560599841; 19.993398371224778
14941406; 93176269; -25952148; 12207031; 604248046; -91552734; -3800000000; -200000000; 3900000000; 26698718261;1600000000; 2400000000; 3300000000; 5008340840; 1999339740; 50.08339560599841; 19.993398371224778
14746093; 95251464; -14489746; -24414062; 152587890; 61035156; -3700000000; -200000000; 3900000000; 26690594482;1600000000; 2400000000; 3400000000; 5008340840; 1999339740; 50.08339560599841; 19.993398371224778
15209960; 95886230; -17456054; 12207031; 268554687; 18310546; -3700000000; -200000000; 4000000000; 26690594482;1600000000; 2400000000; 3400000000; 5008340840; 1999339650; 50.08339560599841; 19.993398371224778
15710449; 95544433; -18798828; -103759765; 67138671; -18310546; -3700000000; -200000000; 3900000000; 26690594482;1600000000; 2400000000; 3500000000; 5008340840; 1999339650; 50.08339560599841; 19.993398371224778
15283203; 96374511; -18688964; 207519531; 24414062; -170898437; -3700000000; -200000000; 3900000000; 26690594482;1600000000; 2400000000; 3500000000; 5008340940; 1999339729; 50.08339560599841; 19.993398371224778
12048339; 94812011; -17541503; -67138671; -579833984; -30517578; -3700000000; -400000000; 4000000000; 26382983398;1600000000; 2400000000; 3600000000; 5008340940; 1999339729; 50.08339560599841; 19.993398371224778
7922363; 93444824; -19042968; -213623046; -872802734; 109863281; -3700000000; -300000000; 4000000000; 26536453247;1600000000; 2400000000; 3600000000; 5008341030; 1999339630; 50.08339560599841; 19.993398371224778
15246582; 94555664; -17065429; -317382812; 329589843; 415039062; -3900000000; -200000000; 3800000000; 26706433105;1600000000; 2400000000; 3700000000; 5008341030; 1999339630; 50.08339560599841; 19.993398371224778
16052246; 96142578; -18530273; -469970703; 24414062; 329589843; -4000000000; -200000000; 3800000000; 26713760375;1600000000; 2400000000; 3700000000; 5008341140; 1999339530; 50.08339560599841; 19.993398371224778
14514160; 94616699; -16955566; -85449218; -238037109; 6103515; -3800000000; -200000000; 3800000000; 26698718261;1600000000; 2400000000; 3800000000; 5008341140; 1999339530; 50.08339560599841; 19.993398371224778
13195800; 94897460; -15710449; -250244140; -244140625; 274658203; -3800000000; -200000000; 4000000000; 26698718261;1600000000; 2400000000; 3800000000; 5008341150; 1999339489; 50.08339560599841; 19.993398371224778
15563964; 95141601; -20654296; 286865234; 36621093; -140380859; -3900000000; -100000000; 3900000000; 26853121948;1600000000; 2400000000; 3900000000; 5008341150; 1999339489; 50.08339560599841; 19.993398371224778
13793945; 93994140; -17041015; -6103515; -439453125; -48828125; -3800000000; -100000000; 3900000000; 26849255371;1600000000; 2400000000; 3900000000; 5008341009; 1999339410; 50.08339560599841; 19.993398371224778
13037109; 96008300; -17309570; -244140625; -524902343; 219726562; -3700000000; -100000000; 3900000000; 26845184326;1600000000; 2400000000; 4000000000; 5008341009; 1999339410; 50.08339560599841; 19.993398371224778
13012695; 95190429; -16235351; -42724609; -555419921; -103759765; -3700000000; -100000000; 4000000000; 26840887451;1600000000; 2400000000; 4000000000; 5008340980; 1999339339; 50.08339560599841; 19.993398371224778
12817382; 96203613; -11865234; -433349609; 79345703; 158691406; -3600000000; -200000000; 4000000000; 26682015991;1600000000; 2400000000; 4100000000; 5008340980; 1999339339; 50.08339560599841; 19.993398371224778
17102050; 97644042; -13427734; 177001953; 280761718; -213623046; -3600000000; -200000000; 4000000000; 26682015991;1600000000; 2400000000; 4100000000; 5008341040; 1999339260; 50.08339560599841; 19.993398371224778
13220214; 95629882; -20166015; 213623046; -103759765; -48828125; -3600000000; -100000000; 4100000000; 26840887451;1600000000; 2400000000; 4200000000; 5008341040; 1999339260; 50.08339560599841; 19.993398371224778
10522460; 94311523; -15173339; -415039062; -268554687; 354003906; -3700000000; -100000000; 3900000000; 26845184326;1600000000; 2400000000; 4200000000; 5008341009; 1999339230; 50.08339560599841; 19.993398371224778
11523437; 94763183; -18969726; -48828125; 152587890; 61035156; -3600000000; -100000000; 4000000000; 26840887451;1600000000; 2400000000; 4300000000; 5008341009; 1999339230; 50.08339560599841; 19.993398371224778
11450195; 94604492; -18762207; -67138671; 109863281; 109863281; -3700000000; -100000000; 4000000000; 26845184326;1600000000; 2400000000; 4300000000; 5008341030; 1999339200; 50.08339560599841; 19.993398371224778
11645507; 94726562; -17187500; -158691406; -140380859; 292968750; -3600000000; -200000000; 4000000000; 26682015991;1600000000; 2400000000; 4400000000; 5008341030; 1999339200; 50.08339560599841; 19.993398371224778
10778808; 95715332; -16809082; -360107421; -292968750; 256347656; -3600000000; -100000000; 4000000000; 26840887451;1600000000; 2400000000; 4400000000; 5008341100; 1999339190; 50.08339560599841; 19.993398371224778
11767578; 94909667; -17761230; 152587890; 18310546; -48828125; -3700000000; -100000000; 4000000000; 26845184326;1600000000; 2400000000; 4500000000; 5008341100; 1999339190; 50.08339560599841; 19.993398371224778
13793945; 96081542; -18457031; 146484375; -213623046; -170898437; -3700000000; -200000000; 4000000000; 26690594482;1600000000; 2400000000; 4500000000; 5008341110; 1999339160; 50.08339560599841; 19.993398371224778
12744140; 94604492; -19091796; 115966796; 152587890; -103759765; -3600000000; -100000000; 4100000000; 26840887451;1600000000; 2400000000; 4600000000; 5008341110; 1999339160; 50.08339560599841; 19.993398371224778
12658691; 95312500; -18530273; -97656250; -67138671; 30517578; -3600000000; -100000000; 3900000000; 26840887451;1600000000; 2400000000; 4600000000; 5008341230; 1999339209; 50.08339560599841; 19.993398371224778
9643554; 95239257; -14294433; -256347656; -48828125; 85449218; -3600000000; -100000000; 4000000000; 26840887451;1600000000; 2400000000; 4700000000; 5008341230; 1999339209; 50.08339560599841; 19.993398371224778
9191894; 94555664; -18066406; -42724609; 354003906; 24414062; -3600000000; -100000000; 4000000000; 26840887451;1600000000; 2400000000; 4700000000; 5008341220; 1999339179; 50.08339560599841; 19.993398371224778
9423828; 94189453; -19836425; 18310546; -317382812; 42724609; -3600000000; -100000000; 4000000000; 26840887451;1600000000; 2400000000; 4800000000; 5008341220; 1999339179; 50.08339560599841; 19.993398371224778
12231445; 96667480; -16723632; -238037109; -299072265; 109863281; -3600000000; -100000000; 4100000000; 26840887451;1600000000; 2400000000; 4800000000; 5008341230; 1999339200; 50.08339560599841; 19.993398371224778
11071777; 95300292; -19079589; 128173828; 48828125; 36621093; -3600000000; -100000000; 4000000000; 26840887451;1600000000; 2400000000; 4900000000; 5008341230; 1999339200; 50.08339560599841; 19.993398371224778
13171386; 96777343; -21215820; 48828125; -48828125; 48828125; -3600000000; -100000000; 4100000000; 26840887451;1600000000; 2400000000; 4900000000; 5008341240; 1999339200; 50.08339560599841; 19.993398371224778
891113; 88854980; -12768554; 85449218; -4309082031; 1605224609; -2900000000; 0; 4300000000; 27000000000;1600000000; 2400000000; 5000000000; 5008341240; 1999339200; 50.08339560599841; 19.993398371224778
-2941894; 92919921; -20629882; -207519531; -2410888671; 2362060546; -2900000000; 200000000; 4200000000; 27394515991;1600000000; 2400000000; 5000000000; 5008341309; 1999339239; 50.08339560599841; 19.993398371224778
8178710; 90600585; -12915039; 3607177734; 2117919921; -738525390; -3000000000; -200000000; 4300000000; 26618591308;1600000000; 2400000000; 5100000000; 5008341309; 1999339239; 50.08339560599841; 19.993398371224778
952148; 96875000; -12609863; -1531982421; -1062011718; 476074218; -2900000000; -200000000; 4400000000; 26802505493;1600000000; 2400000000; 5100000000; 5008341240; 1999339239; 50.08339560599841; 19.993398371224778
2783203; 104907226; -8923339; 579833984; -42724609; 2581787109; -2800000000; -100000000; 4200000000; 26795458984;1600000000; 2400000000; 5200000000; 5008341240; 1999339239; 50.08339560599841; 19.993398371224778
12133789; 90942382; -10522460; -335693359; 2532958984; -1000976562; -3000000000; 0; 4300000000; 27000000000;1600000000; 2400000000; 5200000000; 5008341249; 1999339200; 50.08339560599841; 19.993398371224778
-27429199; 90771484; -13757324; 860595703; 311279296; 775146484; -1900000000; -800000000; 4700000000; 24819857788;1600000000; 2500000000; 1100000000; 5008342010; 1999339620; 50.08339583518916; 19.99339662938238
-18481445; 101660156; -15893554; -122070312; -640869140; -384521484; -2100000000; -800000000; 4700000000; 24914553833;1600000000; 2500000000; 1100000000; 5008342010; 1999339680; 50.08339583518916; 19.99339662938238
-16442871; 93041992; -11608886; 634765625; -244140625; -134277343; -2100000000; -800000000; 4700000000; 24914553833;1600000000; 2500000000; 1200000000; 5008342010; 1999339680; 50.08339583518916; 19.99339662938238
-19470214; 96203613; -10693359; -695800781; 494384765; -207519531; -2100000000; -800000000; 4700000000; 24914553833;1600000000; 2500000000; 1200000000; 5008342010; 1999339740; 50.08339583518916; 19.99339662938238
-21142578; 93383789; -13134765; 134277343; -256347656; 323486328; -2100000000; -800000000; 4700000000; 24914553833;1600000000; 2500000000; 1300000000; 5008342010; 1999339740; 50.08339583518916; 19.99339662938238
-14758300; 102612304; -12866210; -408935546; 201416015; 91552734; -2200000000; -800000000; 4600000000; 25001689147;1600000000; 2500000000; 1300000000; 5008342060; 1999339750; 50.08339583518916; 19.99339662938238
-19384765; 89611816; -23950195; -115966796; 109863281; 439453125; -2100000000; -600000000; 4700000000; 25405459594;1600000000; 2500000000; 1400000000; 5008342060; 1999339750; 50.08339583518916; 19.99339662938238
-18542480; 96594238; -23620605; 225830078; -756835937; 305175781; -2100000000; -600000000; 4600000000; 25405459594;1600000000; 2500000000; 1400000000; 5008342080; 1999339770; 50.08339583518916; 19.99339662938238
-10180664; 99890136; -21435546; 927734375; -3503417968; 1757812500; -2100000000; -500000000; 4600000000; 25660751342;1600000000; 2500000000; 1500000000; 5008342080; 1999339770; 50.08339583518916; 19.99339662938238
-3527832; 98388671; -7482910; -1721191406; -10699462890; 1617431640; -2000000000; -600000000; 4700000000; 25330076599;1600000000; 2500000000; 1500000000; 5008342120; 1999339750; 50.08339583518916; 19.99339662938238
-2575683; 96130371; -16308593; 244140625; -158691406; 36621093; -700000000; -1300000000; 4800000000; 21160749816;1600000000; 2500000000; 1600000000; 5008342120; 1999339750; 50.08339583518916; 19.99339662938238
-3857421; 97497558; -20092773; -933837890; -1159667968; 457763671; -800000000; -1300000000; 4800000000; 21160749816;1600000000; 2500000000; 1600000000; 5008342160; 1999339729; 50.08339583518916; 19.99339662938238
1867675; 98156738; -10021972; 177001953; -1599121093; 213623046; -700000000; -1700000000; 4900000000; 20238014221;1600000000; 2500000000; 1700000000; 5008342160; 1999339729; 50.08339583518916; 19.99339662938238
-671386; 97253417; -16906738; 500488281; -1641845703; 866699218; -700000000; -1700000000; 4900000000; 20238014221;1600000000; 2500000000; 1700000000; 5008342150; 1999339710; 50.08339583518916; 19.99339662938238
2929687; 95959472; -15026855; -146484375; -628662109; 54931640; -600000000; -1800000000; 4900000000; 19843495178;1600000000; 2500000000; 1800000000; 5008342150; 1999339710; 50.08339583518916; 19.99339662938238
2429199; 96826171; -18041992; -30517578; -128173828; -18310546; -600000000; -1800000000; 4900000000; 19843495178;1600000000; 2500000000; 1800000000; 5008342150; 1999339669; 50.08339583518916; 19.99339662938238
2795410; 96215820; -14660644; -54931640; -42724609; -42724609; -600000000; -2000000000; 5000000000; 19669924926;1600000000; 2500000000; 1900000000; 5008342150; 1999339669; 50.08339583518916; 19.99339662938238
1940917; 96508789; -16174316; -354003906; -79345703; -61035156; -600000000; -1900000000; 4900000000; 19752555847;1600000000; 2500000000; 1900000000; 5008342120; 1999339579; 50.08339583518916; 19.99339662938238
3051757; 96569824; -16394042; 54931640; 79345703; 42724609; -600000000; -2000000000; 4900000000; 19752555847;1600000000; 2500000000; 2000000000; 5008342120; 1999339579; 50.08339583518916; 19.99339662938238
3588867; 97033691; -16442871; -18310546; 85449218; 67138671; -600000000; -1900000000; 4900000000; 19752555847;1600000000; 2500000000; 2000000000; 5008342099; 1999339530; 50.08339583518916; 19.99339662938238
3625488; 96728515; -18542480; -189208984; -177001953; -67138671; -600000000; -1900000000; 4900000000; 19752555847;1600000000; 2500000000; 2100000000; 5008342099; 1999339530; 50.08339583518916; 19.99339662938238
3613281; 96752929; -18359375; 24414062; -24414062; 0; -600000000; -1900000000; 4900000000; 19752555847;1600000000; 2500000000; 2100000000; 5008342060; 1999339470; 50.08339583518916; 19.99339662938238
-16967773; 88317871; -23510742; -848388671; 567626953; -323486328; -500000000; -1800000000; 4800000000; 19552409362;1600000000; 2500000000; 2200000000; 5008342060; 1999339470; 50.08339583518916; 19.99339662938238
-25097656; 90441894; -17272949; -866699218; 842285156; -158691406; -300000000; -1800000000; 4700000000; 18946232604;1600000000; 2500000000; 2200000000; 5008342050; 1999339500; 50.08339583518916; 19.99339662938238
-2026367; 93066406; -21228027; 543212890; -695800781; -146484375; -400000000; -1800000000; 4800000000; 19252879333;1600000000; 2500000000; 2300000000; 5008342050; 1999339500; 50.08339583518916; 19.99339662938238
-2282714; 96459960; -23718261; -292968750; 103759765; 158691406; -400000000; -1800000000; 4900000000; 19252879333;1600000000; 2500000000; 2300000000; 5008342060; 1999339410; 50.08339583518916; 19.99339662938238
-366210; 95056152; -20617675; 24414062; 48828125; 24414062; -400000000; -1800000000; 4900000000; 19252879333;1600000000; 2500000000; 2400000000; 5008342060; 1999339410; 50.08339583518916; 19.99339662938238
-2722167; 95434570; -24133300; 85449218; 12207031; -219726562; -400000000; -1700000000; 4800000000; 19324052429;1600000000; 2500000000; 2400000000; 5008341979; 1999339350; 50.08339583518916; 19.99339662938238
3088378; 90600585; -33703613; 463867187; 6103515; -1220703125; -500000000; -1700000000; 4800000000; 19638954162;1600000000; 2500000000; 2500000000; 5008341979; 1999339350; 50.08339583518916; 19.99339662938238
-1013183; 98132324; -23388671; -299072265; 543212890; 714111328; -400000000; -1600000000; 4800000000; 19403623962;1600000000; 2500000000; 2500000000; 5008341919; 1999339359; 50.08339583518916; 19.99339662938238
646972; 93347167; -23547363; 238037109; 231933593; -61035156; -400000000; -1800000000; 4900000000; 19252879333;1600000000; 2500000000; 2600000000; 5008341919; 1999339359; 50.08339583518916; 19.99339662938238
-5456542; 96459960; -21081542; -640869140; 506591796; -225830078; -300000000; -1800000000; 4800000000; 18946232604;1600000000; 2500000000; 2600000000; 5008341850; 1999339309; 50.08339583518916; 19.99339662938238
-2966308; 94494628; -22595214; -317382812; -103759765; 274658203; -300000000; -1800000000; 4800000000; 18946232604;1600000000; 2500000000; 2700000000; 5008341850; 1999339309; 50.08339583518916; 19.99339662938238
-3698730; 95117187; -20874023; 24414062; 67138671; -18310546; -300000000; -1800000000; 4900000000; 18946232604;1600000000; 2500000000; 2700000000; 5008341760; 1999339419; 50.08339583518916; 19.99339662938238
-2709960; 95690917; -24389648; 408935546; -164794921; -91552734; -300000000; -1800000000; 4800000000; 18946232604;1600000000; 2500000000; 2800000000; 5008341760; 1999339419; 50.08339583518916; 19.99339662938238
549316; 92944335; -21777343; 793457031; -286865234; 433349609; -300000000; -1800000000; 4900000000; 19000798034;1600000000; 2500000000; 2800000000; 5008341730; 1999339470; 50.08339583518916; 19.99339662938238
4589843; 96533203; -8532714; 219726562; -1940917968; -18310546; -700000000; -2100000000; 4900000000; 19843495178;1600000000; 2500000000; 2900000000; 5008341730; 1999339470; 50.08339583518916; 19.99339662938238
12817382; 92761230; -12597656; -1080322265; -1110839843; 170898437; -600000000; -2100000000; 4900000000; 19594540405;1600000000; 2500000000; 2900000000; 5008341720; 1999339510; 50.08339583518916; 19.99339662938238
1171875; 97839355; -18530273; 488281250; -158691406; -579833984; -400000000; -2100000000; 4800000000; 19078430175;1600000000; 2500000000; 3000000000; 5008341720; 1999339510; 50.08339583518916; 19.99339662938238
-695800; 97314453; -19750976; -67138671; -347900390; 122070312; -400000000; -2000000000; 4700000000; 19130992126;1600000000; 2500000000; 3000000000; 5008341730; 1999339549; 50.08339583518916; 19.99339662938238
-476074; 97351074; -19238281; 268554687; 280761718; -378417968; -400000000; -2100000000; 4900000000; 19078430175;1600000000; 2500000000; 3100000000; 5008341730; 1999339549; 50.08339583518916; 19.99339662938238
1208496; 96215820; -19055175; 6103515; 329589843; -54931640; -400000000; -2100000000; 4800000000; 19078430175;1600000000; 2500000000; 3100000000; 5008341679; 1999339510; 50.08339583518916; 19.99339662938238
3442382; 96789550; -17919921; -189208984; 109863281; -42724609; -400000000; -2000000000; 4800000000; 19130992126;1600000000; 2500000000; 3200000000; 5008341679; 1999339510; 50.08339583518916; 19.99339662938238
6347656; 89550781; -20776367; -152587890; -366210937; 695800781; -400000000; -1900000000; 4800000000; 19188865661;1600000000; 2500000000; 3200000000; 5008341630; 1999339540; 50.08339583518916; 19.99339662938238
-19201660; 95043945; -21496582; 1757812500; 4650878906; 1385498046; -300000000; -1100000000; 4600000000; 20396247863;1600000000; 2500000000; 3300000000; 5008341630; 1999339540; 50.08339583518916; 19.99339662938238
2307128; 96105957; -31750488; -54931640; 292968750; 1416015625; -700000000; -500000000; 4400000000; 23446232604;1600000000; 2500000000; 3300000000; 5008341619; 1999339540; 50.08339583518916; 19.99339662938238
-5957031; 94067382; -22351074; 85449218; 1928710937; -524902343; -800000000; -600000000; 4500000000; 23313009643;1600000000; 2500000000; 3400000000; 5008341619; 1999339540; 50.08339583518916; 19.99339662938238
-9765625; 97216796; -21325683; -311279296; 1452636718; -585937500; -900000000; -500000000; 4500000000; 24094538879;1600000000; 2500000000; 3400000000; 5008341590; 1999339540; 50.08339583518916; 19.99339662938238
-8129882; 91442871; -30407714; -921630859; 6195068359; -2185058593; -2100000000; 100000000; 4200000000; 27272631835;1600000000; 2500000000; 3500000000; 5008341590; 1999339540; 50.08339583518916; 19.99339662938238
1403808; 97070312; -33959960; -354003906; 5346679687; -726318359; -2300000000; 100000000; 4300000000; 27248953247;1600000000; 2500000000; 3500000000; 5008341679; 1999339480; 50.08339583518916; 19.99339662938238
6005859; 98278808; -19433593; -152587890; 915527343; 494384765; -3700000000; -1700000000; 4400000000; 24532312011;1600000000; 2500000000; 3600000000; 5008341679; 1999339480; 50.08339583518916; 19.99339662938238
3210449; 96093750; -17785644; 775146484; -384521484; -366210937; -3600000000; -1700000000; 4400000000; 24472229003;1600000000; 2500000000; 3600000000; 5008341590; 1999339399; 50.08339583518916; 19.99339662938238
-13671875; 96057128; -18762207; -1312255859; -964355468; -2386474609; -3200000000; -1300000000; 4600000000; 24637062072;1600000000; 2500000000; 3700000000; 5008341590; 1999339399; 50.08339583518916; 19.99339662938238
-9509277; 91137695; -30358886; 616455078; 1312255859; 1416015625; -3000000000; -1400000000; 4600000000; 24498310852;1600000000; 2500000000; 3700000000; 5008341559; 1999339299; 50.08339583518916; 19.99339662938238
-2453613; 94909667; -24499511; 817871093; -744628906; -677490234; -3500000000; -2000000000; 4600000000; 24025512695;1600000000; 2500000000; 3800000000; 5008341559; 1999339299; 50.08340163146213; 19.99341026837476
1513671; 97033691; -23132324; -646972656; -1861572265; 1684570312; -3500000000; -2100000000; 4500000000; 23903622436;1600000000; 2500000000; 3800000000; 5008341559; 1999339260; 50.08340163146213; 19.99341026837476
-3466796; 93029785; -25500488; -610351562; -671386718; -555419921; -3300000000; -2000000000; 4500000000; 23878160095;1600000000; 2500000000; 3900000000; 5008341559; 1999339260; 50.08340163146213; 19.99341026837476
-1086425; 100695800; -18957519; -811767578; -1104736328; 1959228515; -3400000000; -2000000000; 4600000000; 23953446960;1600000000; 2500000000; 3900000000; 5008341499; 1999339170; 50.08340163146213; 19.99341026837476
-6262207; 96154785; -20996093; 366210937; 878906250; 24414062; -3400000000; -1800000000; 4600000000; 24210272216;1600000000; 2500000000; 4000000000; 5008341499; 1999339170; 50.08340163146213; 19.99341026837476
-9594726; 92431640; -26184082; 1843261718; -1251220703; 1269531250; -3400000000; -1700000000; 4400000000; 24343496704;1600000000; 2500000000; 4000000000; 5008341510; 1999339269; 50.08340163146213; 19.99341026837476
2648925; 96105957; -30419921; 122070312; -1159667968; -708007812; -3300000000; -900000000; 4400000000; 25314158630;1600000000; 2500000000; 4100000000; 5008341510; 1999339269; 50.08340163146213; 19.99341026837476
-8618164; 85815429; -33752441; 225830078; -2313232421; -494384765; -3200000000; -900000000; 4400000000; 25429136657;1600000000; 2500000000; 4100000000; 5008341260; 1999339339; 50.08340163146213; 19.99341026837476
-3527832; 105004882; -44592285; -2020263671; 4803466796; 36621093; -3500000000; -1200000000; 4300000000; 25107534790;1600000000; 2500000000; 4200000000; 5008341260; 1999339339; 50.08340163146213; 19.99341026837476
-8032226; 90246582; -24829101; -292968750; 122070312; -1129150390; -3600000000; -1500000000; 4400000000; 24738012695;1600000000; 2500000000; 4200000000; 5008340900; 1999339800; 50.08340163146213; 19.99341026837476
1171875; 115502929; -18041992; -347900390; 1483154296; 329589843; -3400000000; -2000000000; 4600000000; 23953446960;1600000000; 2500000000; 4300000000; 5008340900; 1999339800; 50.08340163146213; 19.99341026837476
-13195800; 100708007; -9094238; -683593750; -54931640; 2197265625; -3600000000; -2100000000; 4400000000; 23974357604;1600000000; 2500000000; 4300000000; 5008340640; 1999340210; 50.08340163146213; 19.99341026837476
-2392578; 97729492; -21545410; -1025390625; 103759765; -3491210937; -3700000000; -2400000000; 4400000000; 23703059387;1600000000; 2500000000; 4400000000; 5008340640; 1999340210; 50.08340163146213; 19.99341026837476
-17028808; 82519531; -13085937; -695800781; 109863281; 524902343; -3600000000; -2700000000; 4500000000; 23313009643;1600000000; 2500000000; 4400000000; 5008340600; 1999340390; 50.08340163146213; 19.99341026837476
7067871; 100378417; -18566894; 1477050781; 54931640; -1922607421; -3400000000; -1900000000; 4600000000; 24080252075;1600000000; 2500000000; 4500000000; 5008340600; 1999340390; 50.08338856567158; 19.993425441831896
-12463378; 87243652; -26110839; 1348876953; -610351562; -1226806640; -3200000000; -1900000000; 4600000000; 23930026245;1600000000; 2500000000; 4500000000; 5008340750; 1999340450; 50.08338856567158; 19.993425441831896
-22314453; 112182617; -19384765; 1440429687; 341796875; 4791259765; -3000000000; -2100000000; 4700000000; 23717146301;1600000000; 2500000000; 4600000000; 5008340750; 1999340450; 50.08338856567158; 19.993425441831896
-26513671; 77917480; -28979492; 762939453; 1184082031; 1989746093; -3200000000; -1900000000; 4600000000; 23930026245;1600000000; 2500000000; 4600000000; 5008340680; 1999340399; 50.08338856567158; 19.993425441831896
-9191894; 97192382; -23583984; -433349609; -244140625; 524902343; -3200000000; -1900000000; 4700000000; 23930026245;1600000000; 2500000000; 4700000000; 5008340680; 1999340399; 50.08338856567158; 19.993425441831896
-11022949; 91796875; -21630859; -73242187; -299072265; 286865234; -3200000000; -1900000000; 4600000000; 23930026245;1600000000; 2500000000; 4700000000; 5008340550; 1999340369; 50.08338856567158; 19.993425441831896
-2844238; 95690917; -20825195; -445556640; -195312500; 628662109; -3300000000; -1600000000; 4500000000; 24413363647;1600000000; 2500000000; 4800000000; 5008340550; 1999340369; 50.08339985939186; 19.993421820259254
-2038574; 96716308; -21020507; -482177734; -347900390; 109863281; -3400000000; -1700000000; 4600000000; 24343496704;1600000000; 2500000000; 4800000000; 5008340690; 1999340170; 50.08339985939186; 19.993421820259254
-3869628; 96093750; -20788574; 6103515; -54931640; 91552734; -3400000000; -1600000000; 4600000000; 24479887390;1600000000; 2500000000; 4900000000; 5008340690; 1999340170; 50.08339985939186; 19.993421820259254
-2746582; 95849609; -19226074; -67138671; -189208984; 6103515; -3400000000; -1700000000; 4500000000; 24343496704;1600000000; 2500000000; 4900000000; 5008340620; 1999340140; 50.08339985939186; 19.993421820259254
-12133789; 95690917; -16931152; 292968750; 67138671; 177001953; -3100000000; -1900000000; 4600000000; 23849572753;1600000000; 2500000000; 5000000000; 5008340620; 1999340140; 50.08339985939186; 19.993421820259254
-13513183; 94482421; -17724609; 335693359; -238037109; -24414062; -3100000000; -1800000000; 4600000000; 23985862731;1600000000; 2500000000; 5000000000; 5008340540; 1999340149; 50.08339985939186; 19.993421820259254
-9179687; 97021484; -19311523; -36621093; -42724609; -250244140; -3100000000; -1800000000; 4700000000; 23985862731;1600000000; 2500000000; 5100000000; 5008340540; 1999340149; 50.08339985939186; 19.993421820259254
-10437011; 95214843; -19995117; 360107421; 12207031; -42724609; -3100000000; -1800000000; 4600000000; 23985862731;1600000000; 2500000000; 5100000000; 5008340530; 1999340129; 50.08339985939186; 19.993421820259254
-11083984; 95727539; -22290039; 823974609; -109863281; 317382812; -3100000000; -1700000000; 4700000000; 24126020812;1600000000; 2500000000; 5200000000; 5008340530; 1999340129; 50.08339985939186; 19.993421820259254
-2661132; 94824218; -24572753; 341796875; 1068115234; -1245117187; -3100000000; -1600000000; 4600000000; 24270040893;1600000000; 2500000000; 5200000000; 5008340510; 1999340029; 50.08339985939186; 19.993421820259254
-17150878; 90795898; -25146484; -543212890; 1690673828; -891113281; -3100000000; -2700000000; 4700000000; 22894517517;1600000000; 2500000000; 5300000000; 5008340510; 1999340029; 50.08339985939186; 19.993421820259254
-8386230; 94335937; -19543457; 1086425781; 476074218; 1318359375; -3000000000; -2700000000; 4700000000; 22894517517;1600000000; 2500000000; 5300000000; 5008340470; 1999339980; 50.08339985939186; 19.993421820259254
-10998535; 93029785; -26391601; 0; -329589843; 61035156; -3000000000; -2600000000; 4800000000; 22908560180;1600000000; 2500000000; 5400000000; 5008340470; 1999339980; 50.08339985939186; 19.993421820259254
-10070800; 91003417; -29370117; -177001953; -61035156; -122070312; -3000000000; -2600000000; 4700000000; 22908560180;1600000000; 2500000000; 5400000000; 5008340380; 1999339999; 50.08339985939186; 19.993421820259254
-12524414; 90515136; -29870605; 54931640; 927734375; -878906250; -2900000000; -2600000000; 4900000000; 22812213134;1600000000; 2500000000; 5500000000; 5008340380; 1999339999; 50.08339985939186; 19.993421820259254
-13830566; 91601562; -26708984; -457763671; 1123046875; -610351562; -2800000000; -2700000000; 4900000000; 22604164123;1600000000; 2500000000; 5500000000; 5008340270; 1999339950; 50.08339985939186; 19.993421820259254
-11706542; 92346191; -26464843; -531005859; 2154541015; -73242187; -2600000000; -3100000000; 4900000000; 21998689270;1600000000; 2500000000; 5600000000; 5008340270; 1999339950; 50.08339985939186; 19.993421820259254
-9460449; 94287109; -27050781; -390625000; 1867675781; -73242187; -2600000000; -3100000000; 4900000000; 21998689270;1600000000; 2500000000; 5600000000; 5008340219; 1999339950; 50.08339985939186; 19.993421820259254
-8764648; 90246582; -31750488; -567626953; 1794433593; -805664062; -2200000000; -3600000000; 5000000000; 21142955017;1600000000; 2500000000; 5700000000; 5008340219; 1999339950; 50.08339985939186; 19.993421820259254
-9216308; 90698242; -30810546; -238037109; 2105712890; -842285156; -2100000000; -3700000000; 5000000000; 20957783508;1600000000; 2500000000; 5700000000; 5008340210; 1999339969; 50.08339985939186; 19.993421820259254
-4187011; 92089843; -25915527; -744628906; 2539062500; 1251220703; -1700000000; -3800000000; 5000000000; 20477513122;1600000000; 2500000000; 5800000000; 5008340210; 1999339969; 50.08339985939186; 19.993421820259254
-1892089; 96850585; -21691894; -445556640; 4064941406; 3173828125; -1900000000; -3900000000; 4900000000; 20597439575;1600000000; 2500000000; 5800000000; 5008340050; 1999340039; 50.08339985939186; 19.993421820259254
8972167; 92944335; -28247070; 579833984; 1855468750; -799560546; -1600000000; -3500000000; 5000000000; 20456718444;1600000000; 2500000000; 5900000000; 5008340050; 1999340039; 50.08339985939186; 19.993421820259254
10729980; 91491699; -28820800; -1135253906; 372314453; -714111328; -1600000000; -3400000000; 5100000000; 20520111083;1600000000; 2500000000; 5900000000; 5008339930; 1999340069; 50.08339985939186; 19.993421820259254
8837890; 93444824; -35021972; -2398681640; -11541748046; -573730468; -2500000000; -3600000000; 4900000000; 21477783203;1600000000; 2600000000; 0; 5008339930; 1999340069; 50.08339985939186; 19.993421820259254
-19006347; 96142578; -17565917; 335693359; -9448242187; 1385498046; -2500000000; -3700000000; 4800000000; 21404592895;1600000000; 2600000000; 0; 5008339920; 1999340080; 50.08339985939186; 19.993421820259254
8740234; 85742187; -26953125; -1904296875; -6512451171; -390625000; -3600000000; -800000000; 4200000000; 25747119140;1600000000; 2600000000; 100000000; 5008339920; 1999340080; 50.08339985939186; 19.993421820259254
8776855; 96813964; -18237304; -3509521484; -8398437500; 6964111328; -3600000000; -800000000; 4200000000; 25747119140;1600000000; 2600000000; 100000000; 5008339820; 1999340119; 50.08339985939186; 19.993421820259254
1831054; 107214355; -2136230; -3094482421; -2429199218; 189208984; -1900000000; -300000000; 4600000000; 26102737426;1600000000; 2600000000; 200000000; 5008339820; 1999340119; 50.08339985939186; 19.993421820259254
-7739257; 89306640; -15209960; -250244140; -6188964843; 6048583984; -1900000000; -200000000; 4500000000; 26428939819;1600000000; 2600000000; 200000000; 5008339750; 1999340119; 50.08339985939186; 19.993421820259254
-1379394; 91723632; -9765625; 445556640; -4132080078; 42724609; -900000000; -600000000; 4600000000; 23630992126;1600000000; 2600000000; 300000000; 5008339750; 1999340119; 50.08339985939186; 19.993421820259254
195312; 96313476; -26757812; -183105468; -3002929687; 1226806640; -800000000; -800000000; 4600000000; 22500000000;1600000000; 2600000000; 300000000; 5008339780; 1999340219; 50.08339985939186; 19.993421820259254
-9936523; 91552734; -17102050; 787353515; -506591796; -286865234; -500000000; -1500000000; 4800000000; 19843495178;1600000000; 2600000000; 400000000; 5008339780; 1999340219; 50.08339985939186; 19.993421820259254
-11083984; 91296386; -23876953; 646972656; -3155517578; -1806640625; -300000000; -1500000000; 4600000000; 19130992126;1600000000; 2600000000; 400000000; 5008339810; 1999340200; 50.08339985939186; 19.993421820259254
-8544921; 95239257; -20800781; -946044921; -1110839843; 775146484; -200000000; -3100000000; 4800000000; 18369137573;1600000000; 2600000000; 500000000; 5008339810; 1999340200; 50.08339985939186; 19.993421820259254
-11230468; 96191406; -18017578; -1531982421; -2484130859; -805664062; -200000000; -3300000000; 4900000000; 18346823120;1600000000; 2600000000; 500000000; 5008339729; 1999340230; 50.08339985939186; 19.993421820259254
-7995605; 101794433; -11340332; -488281250; -2691650390; 1770019531; -1100000000; -4300000000; 4900000000; 19434931945;1600000000; 2600000000; 600000000; 5008339729; 1999340230; 50.08339985939186; 19.993421820259254
109863; 100024414; -11523437; 2642822265; -7629394531; 5279541015; -1200000000; -4300000000; 4900000000; 19719854736;1600000000; 2600000000; 600000000; 5008339740; 1999340290; 50.08339985939186; 19.993421820259254
10461425; 88024902; -24877929; -18310546; -6170654296; 134277343; -2500000000; -4100000000; 4700000000; 21137300109;1600000000; 2600000000; 700000000; 5008339740; 1999340290; 50.08339985939186; 19.993421820259254
-8605957; 97094726; -19177246; 97656250; -4174804687; 531005859; -2500000000; -3900000000; 4900000000; 21266090393;1600000000; 2600000000; 700000000; 5008339760; 1999340360; 50.08339985939186; 19.993421820259254
3662109; 102209472; -5932617; -24414062; -1745605468; 1770019531; -3400000000; -3300000000; 4500000000; 22585508728;1600000000; 2600000000; 800000000; 5008339760; 1999340360; 50.08339985939186; 19.993421820259254
-1257324; 88195800; -14575195; 1757812500; -2709960937; 1965332031; -3400000000; -3100000000; 4600000000; 22764254760;1600000000; 2600000000; 800000000; 5008339800; 1999340500; 50.08339985939186; 19.993421820259254
-4028320; 97827148; -6652832; -12207031; -1336669921; 415039062; -3600000000; -2400000000; 4400000000; 23630992126;1600000000; 2600000000; 900000000; 5008339800; 1999340500; 50.08339985939186; 19.993421820259254
-842285; 97167968; -7849121; -488281250; -79345703; -73242187; -3700000000; -2300000000; 4400000000; 23813403320;1600000000; 2600000000; 900000000; 5008339780; 1999340500; 50.08339985939186; 19.993421820259254
4321289; 90148925; -20495605; -1898193359; 7934570312; 170898437; -3000000000; -2600000000; 4800000000; 22908560180;1600000000; 2600000000; 1000000000; 5008339780; 1999340500; 50.08339985939186; 19.993421820259254
6176757; 80468750; -28198242; 6518554687; 19079589843; 4772949218; -3000000000; -3000000000; 4700000000; 22500000000;1600000000; 2600000000; 1000000000; 5008339700; 1999340470; 50.08339985939186; 19.993421820259254
16516113; 89270019; -20715332; 2716064453; 4382324218; -158691406; -1000000000; -3200000000; 5100000000; 19735403442;1600000000; 2600000000; 1100000000; 5008339700; 1999340470; 50.08339985939186; 19.993421820259254
3991699; 93151855; -27490234; -4217529296; 11077880859; -2288818359; -900000000; -2700000000; 5000000000; 19843495178;1600000000; 2600000000; 1100000000; 5008339700; 1999340570; 50.08339985939186; 19.993421820259254
9887695; 93225097; -15393066; -2673339843; 6909179687; 567626953; -1000000000; -900000000; 4700000000; 22801277160;1600000000; 2600000000; 1200000000; 5008339700; 1999340570; 50.08339985939186; 19.993421820259254
3039550; 90075683; -26428222; -225830078; 5035400390; -4382324218; -1200000000; -800000000; 4700000000; 23630992126;1600000000; 2600000000; 1200000000; 5008339770; 1999340540; 50.08339985939186; 19.993421820259254
-1171875; 94055175; -14465332; -1782226562; 1330566406; 585937500; -2300000000; -400000000; 4500000000; 26013421630;1600000000; 2600000000; 1300000000; 5008339770; 1999340540; 50.08339985939186; 19.993421820259254
-1501464; 106494140; -7592773; -2374267578; 7861328125; 439453125; -2500000000; -500000000; 4500000000; 25869006347;1600000000; 2600000000; 1300000000; 5008339810; 1999340699; 50.08339985939186; 19.993421820259254
-6408691; 94287109; -3161621; 2404785156; 6024169921; 878906250; -3600000000; -2000000000; 4400000000; 24094538879;1600000000; 2600000000; 1400000000; 5008339810; 1999340699; 50.08339985939186; 19.993421820259254
20812988; 89538574; -9338378; -1318359375; 2270507812; -3350830078; -3700000000; -2100000000; 4300000000; 24042218017;1600000000; 2600000000; 1400000000; 5008339800; 1999340900; 50.08339985939186; 19.993421820259254
-11279296; 93969726; -26684570; -842285156; 2282714843; -2459716796; -2100000000; -3500000000; 5000000000; 21096374511;1600000000; 2600000000; 1500000000; 5008339800; 1999340900; 50.08339985939186; 19.993421820259254
-14392089; 77612304; -42590332; -933837890; 10675048828; 2825927734; -1700000000; -3500000000; 5000000000; 20590649414;1600000000; 2600000000; 1500000000; 5008339750; 1999341080; 50.08339985939186; 19.993421820259254
15478515; 89782714; -25061035; 5554199218; 5218505859; 1373291015; -700000000; -3000000000; 5100000000; 19313401794;1600000000; 2600000000; 1600000000; 5008339750; 1999341080; 50.08339985939186; 19.993421820259254
15380859; 90197753; -22827148; -1904296875; 3430175781; -3179931640; -800000000; -2600000000; 5100000000; 19710273742;1600000000; 2600000000; 1600000000; 5008339620; 1999341039; 50.08339985939186; 19.993421820259254
12597656; 99938964; -18811035; -537109375; 3082275390; -897216796; -900000000; -1300000000; 4800000000; 21469515991;1600000000; 2600000000; 1700000000; 5008339620; 1999341039; 50.08339985939186; 19.993421820259254
-11706542; 91455078; -15930175; 964355468; 1959228515; 1379394531; -800000000; -1300000000; 4800000000; 21160749816;1600000000; 2600000000; 1700000000; 5008339530; 1999341090; 50.08339985939186; 19.993421820259254
-9057617; 96032714; -15112304; -750732421; -91552734; -506591796; -1300000000; -800000000; 4700000000; 23839250183;1600000000; 2600000000; 1800000000; 5008339530; 1999341090; 50.08339985939186; 19.993421820259254
-10522460; 98889160; -20959472; -225830078; 299072265; -354003906; -1300000000; -800000000; 4700000000; 23839250183;1600000000; 2600000000; 1800000000; 5008339510; 1999341170; 50.08339985939186; 19.993421820259254
-8239746; 94885253; -12939453; 469970703; 378417968; -109863281; -1300000000; -800000000; 4700000000; 23839250183;1600000000; 2600000000; 1900000000; 5008339510; 1999341170; 50.08339985939186; 19.993421820259254
-9240722; 93420410; -8068847; 1031494140; -128173828; 738525390; -1300000000; -700000000; 4700000000; 24169923400;1600000000; 2600000000; 1900000000; 5008339470; 1999341219; 50.08339985939186; 19.993421820259254
5041503; 97094726; -5090332; 750732421; 244140625; 604248046; -1400000000; -700000000; 4700000000; 24680140686;1600000000; 2600000000; 2000000000; 5008339470; 1999341219; 50.08339985939186; 19.993421820259254
-2758789; 94470214; -18273925; 1184082031; 622558593; 1263427734; -1400000000; -500000000; 4600000000; 25034617614;1600000000; 2600000000; 2000000000; 5008339460; 1999341150; 50.08339985939186; 19.993421820259254
10900878; 94494628; -19372558; -1214599609; -3863525390; -1153564453; -1800000000; -100000000; 4400000000; 26682015991;1600000000; 2600000000; 2100000000; 5008339460; 1999341150; 50.08339985939186; 19.993421820259254
39282226; 108886718; -34008789; -183105468; -4223632812; 1129150390; -1700000000; -200000000; 4400000000; 26329016113;1600000000; 2600000000; 2100000000; 5008339390; 1999341090; 50.08339985939186; 19.993421820259254
21545410; 90258789; -32788085; 12207031; -708007812; 91552734; 100000000; -500000000; 4100000000; 16869007873;1600000000; 2600000000; 2200000000; 5008339390; 1999341090; 50.08340924832527; 19.99342209576899
16113281; 85620117; -33813476; -6103515; 323486328; -238037109; 400000000; -400000000; 4300000000; 13500000000;1600000000; 2600000000; 2200000000; 5008339350; 1999341009; 50.08340924832527; 19.99342209576899
8276367; 90222167; -31640625; -1812744140; 878906250; -537109375; 700000000; 500000000; 4700000000; 5446232223;1600000000; 2600000000; 2300000000; 5008339350; 1999341009; 50.08340924832527; 19.99342209576899
9948730; 88220214; -24291992; -1739501953; 1806640625; 823974609; 500000000; 500000000; 4600000000; 4500000000;1600000000; 2600000000; 2300000000; 5008339369; 1999341020; 50.08340924832527; 19.99342209576899
26904296; 102050781; -17810058; -653076171; 299072265; -3649902343; 700000000; 1700000000; 4300000000; 2362937736;1600000000; 2600000000; 2400000000; 5008339369; 1999341020; 50.08340924832527; 19.99342209576899
7446289; 99987792; -15332031; -976562500; -897216796; -3692626953; 900000000; 1500000000; 4300000000; 3096375656;1600000000; 2600000000; 2400000000; 5008339210; 1999341609; 50.08340924832527; 19.99342209576899
-10681152; 87915039; -12927246; -659179687; 2233886718; -927734375; 1500000000; 1100000000; 4400000000; 5374615859;1600000000; 2600000000; 2500000000; 5008339210; 1999341609; 50.08340924832527; 19.99342209576899
-793457; 99804687; -14953613; -225830078; 2050781250; -518798828; 1400000000; 1200000000; 4300000000; 4939870452;1600000000; 2600000000; 2500000000; 5008339309; 1999341649; 50.08340924832527; 19.99342209576899
-4895019; 91503906; -15124511; 628662109; -219726562; -762939453; 1100000000; 1400000000; 4400000000; 3815722656;1600000000; 2600000000; 2600000000; 5008339309; 1999341649; 50.08340924832527; 19.99342209576899
6201171; 99853515; -15332031; 183105468; -262451171; 109863281; 1200000000; 1400000000; 4200000000; 4060129547;1600000000; 2600000000; 2600000000; 5008339480; 1999341540; 50.08340924832527; 19.99342209576899
-5065917; 88977050; -11071777; 256347656; -567626953; 6103515; 1300000000; 1300000000; 4400000000; 4500000000;1600000000; 2600000000; 2700000000; 5008339480; 1999341540; 50.083393029473676; 19.993415908968817
-10644531; 94396972; -16894531; 659179687; -933837890; -445556640; 1300000000; 1300000000; 4400000000; 4500000000;1600000000; 2600000000; 2700000000; 5008339609; 1999341440; 50.083393029473676; 19.993415908968817
-1806640; 96057128; -21887207; 531005859; -341796875; 54931640; 1300000000; 1300000000; 4300000000; 4500000000;1600000000; 2600000000; 2800000000; 5008339609; 1999341440; 50.083393029473676; 19.993415908968817
2368164; 97351074; -19116210; 396728515; 12207031; 268554687; 1200000000; 1400000000; 4400000000; 4060129547;1600000000; 2600000000; 2800000000; 5008339789; 1999341500; 50.083393029473676; 19.993415908968817
6823730; 98205566; -16540527; 61035156; -1849365234; 2349853515; 1200000000; 1300000000; 4400000000; 4270938873;1600000000; 2600000000; 2900000000; 5008339789; 1999341500; 50.083393029473676; 19.993415908968817
20275878; 94018554; -11718750; -323486328; -7897949218; 4229736328; 900000000; 1300000000; 4500000000; 3469515609;1600000000; 2600000000; 2900000000; 5008339729; 1999341360; 50.083393029473676; 19.993415908968817
756835; 91625976; -10729980; -451660156; -3515625000; -384521484; 1800000000; -100000000; 4400000000; 9317982482;1600000000; 2600000000; 3000000000; 5008339729; 1999341360; 50.083393029473676; 19.993415908968817
2526855; 93530273; -25463867; 1617431640; -4364013671; 543212890; 1800000000; -100000000; 4400000000; 9317982482;1600000000; 2600000000; 3000000000; 5008339609; 1999341260; 50.083393029473676; 19.993415908968817
5847167; 98168945; -21240234; -1635742187; -2947998046; 1007080078; 1200000000; -1300000000; 4400000000; 13729061889;1600000000; 2600000000; 3100000000; 5008339609; 1999341260; 50.083393029473676; 19.993415908968817
-14550781; 89123535; -25952148; -964355468; -3881835937; 769042968; 1100000000; -1700000000; 4400000000; 14709475708;1600000000; 2600000000; 3100000000; 5008339560; 1999341230; 50.083393029473676; 19.993415908968817
0; 97082519; -13537597; 494384765; -5218505859; 2148437500; 0; -2000000000; 4200000000; 18000000000;1600000000; 2600000000; 3200000000; 5008339560; 1999341230; 50.083393029473676; 19.993415908968817
561523; 95910644; -14843750; 677490234; -1483154296; 2813720703; -300000000; -1800000000; 4400000000; 18946232604;1600000000; 2600000000; 3200000000; 5008339510; 1999341230; 50.083393029473676; 19.993415908968817
-4882812; 96020507; -16442871; -109863281; -1824951171; 1019287109; -800000000; -1800000000; 4200000000; 20396247863;1600000000; 2600000000; 3300000000; 5008339510; 1999341230; 50.083393029473676; 19.993415908968817
-3625488; 90527343; -17822265; -122070312; -2429199218; 1324462890; -900000000; -1700000000; 4100000000; 20789727783;1600000000; 2600000000; 3300000000; 5008339480; 1999341219; 50.083393029473676; 19.993415908968817
-8740234; 95190429; -14477539; -2246093750; -3411865234; -1873779296; -900000000; -1300000000; 4200000000; 21469515991;1600000000; 2600000000; 3400000000; 5008339480; 1999341219; 50.083393029473676; 19.993415908968817
-20593261; 98815917; -20507812; -1037597656; -3088378906; 1641845703; -1000000000; -1300000000; 4300000000; 21756858825;1600000000; 2600000000; 3400000000; 5008339580; 1999341140; 50.083393029473676; 19.993415908968817
-207519; 95471191; -19677734; -549316406; -1373291015; 2716064453; -1400000000; 100000000; 4200000000; 27408563232;1600000000; 2600000000; 3500000000; 5008339580; 1999341140; 50.083393029473676; 19.993415908968817
5297851; 97814941; -8618164; -543212890; -561523437; 512695312; -1600000000; 100000000; 4100000000; 27357635498;1600000000; 2600000000; 3500000000; 5008339410; 1999341099; 50.083393029473676; 19.993415908968817
-6506347; 93359375; -12292480; -933837890; -836181640; -280761718; -1200000000; 800000000; 4200000000; 30369006347;1600000000; 2600000000; 3600000000; 5008339410; 1999341099; 50.083393029473676; 19.993415908968817
-5981445; 94616699; -16052246; 439453125; -2319335937; 219726562; -1200000000; 800000000; 4200000000; 30369006347;1600000000; 2600000000; 3600000000; 5008339309; 1999341090; 50.083393029473676; 19.993415908968817
-1953125; 98095703; -21301269; -860595703; -2532958984; -207519531; -1100000000; 1500000000; 4000000000; 32374615478;1600000000; 2600000000; 3700000000; 5008339309; 1999341090; 50.083393029473676; 19.993415908968817
-463867; 97351074; -15759277; -1110839843; -1232910156; 1306152343; -1000000000; 1400000000; 4100000000; 32446231079;1600000000; 2600000000; 3700000000; 5008339240; 1999341050; 50.083393029473676; 19.993415908968817
-2624511; 92907714; -21508789; 585937500; -1458740234; -67138671; -300000000; 1900000000; 4200000000; 35102737426;1600000000; 2600000000; 3800000000; 5008339240; 1999341050; 50.083393029473676; 19.993415908968817
2392578; 96118164; -25024414; 1385498046; -1446533203; 537109375; -300000000; 2000000000; 4100000000; 35146923828;1600000000; 2600000000; 3800000000; 5008339110; 1999341080; 50.083393029473676; 19.993415908968817
-4370117; 95166015; -21936035; -646972656; 323486328; -97656250; -100000000; 2000000000; 4200000000; 35713760375;1600000000; 2600000000; 3900000000; 5008339110; 1999341080; 50.083393029473676; 19.993415908968817
-4956054; 95336914; -20239257; -219726562; 85449218; -54931640; -100000000; 2000000000; 4200000000; 35713760375;1600000000; 2600000000; 3900000000; 5008339150; 1999340990; 50.083393029473676; 19.993415908968817
-4150390; 99377441; -13513183; 830078125; 1159667968; 36621093; -300000000; 1800000000; 4200000000; 35053768920;1600000000; 2600000000; 4000000000; 5008339150; 1999340990; 50.083393029473676; 19.993415908968817
-36621; 84448242; -21362304; 24414062; 1727294921; -726318359; -400000000; 2000000000; 4000000000; 34869006347;1600000000; 2600000000; 4000000000; 5008339130; 1999340939; 50.083393029473676; 19.993415908968817
8508300; 79809570; -28710937; 2856445312; -10968017578; 7763671875; 0; 2500000000; 3800000000; 0;1600000000; 2600000000; 4100000000; 5008339130; 1999340939; 50.083412385323555; 19.993439284654567
19128417; 96630859; -35803222; 952148437; -3320312500; 1379394531; 100000000; 2600000000; 3900000000; 212109637;1600000000; 2600000000; 4100000000; 5008339120; 1999340919; 50.083412385323555; 19.993439284654567
-1574707; 95617675; -18859863; -628662109; -2343750000; 1226806640; 1200000000; 1500000000; 4200000000; 3865980911;1600000000; 2600000000; 4200000000; 5008339120; 1999340919; 50.083412385323555; 19.993439284654567
-1013183; 95935058; -17932128; 805664062; -1837158203; 1000976562; 1300000000; 1400000000; 4300000000; 4287890625;1600000000; 2600000000; 4200000000; 5008339180; 1999340819; 50.083412385323555; 19.993439284654567
-4003906; 98181152; -15576171; -738525390; -2709960937; 2172851562; 1900000000; 200000000; 4300000000; 8399098968;1600000000; 2600000000; 4300000000; 5008339180; 1999340819; 50.083412385323555; 19.993439284654567
-158691; 93017578; -6726074; 18310546; -976562500; 73242187; 1800000000; 100000000; 4400000000; 8682016754;1600000000; 2600000000; 4300000000; 5008339150; 1999340789; 50.083412385323555; 19.993439284654567
-2050781; 95605468; -27929687; -2929687500; -2636718750; 2301025390; 1700000000; -400000000; 4400000000; 10324051666;1600000000; 2600000000; 4400000000; 5008339150; 1999340789; 50.083412385323555; 19.993439284654567
2661132; 90124511; -23010253; -830078125; -2221679687; -152587890; 1500000000; -500000000; 4500000000; 10843495178;1600000000; 2600000000; 4400000000; 5008339140; 1999340750; 50.083412385323555; 19.993439284654567
1269531; 94165039; -20471191; -73242187; -54931640; 189208984; 1400000000; -800000000; 4400000000; 11974488067;1600000000; 2600000000; 4500000000; 5008339140; 1999340750; 50.083412385323555; 19.993439284654567
4321289; 96069335; -21691894; 256347656; 195312500; -231933593; 1400000000; -800000000; 4400000000; 11974488067;1600000000; 2600000000; 4500000000; 5008339170; 1999340710; 50.083412385323555; 19.993439284654567
1989746; 95898437; -19360351; 36621093; -305175781; 24414062; 1400000000; -900000000; 4500000000; 12273522186;1600000000; 2600000000; 4600000000; 5008339170; 1999340710; 50.083412385323555; 19.993439284654567
1892089; 94995117; -20068359; -48828125; -329589843; -12207031; 1300000000; -800000000; 4500000000; 12160749816;1600000000; 2600000000; 4600000000; 5008339170; 1999340690; 50.083412385323555; 19.993439284654567
3234863; 94177246; -20397949; -48828125; 54931640; -67138671; 1400000000; -800000000; 4500000000; 11974488067;1600000000; 2600000000; 4700000000; 5008339170; 1999340690; 50.083412385323555; 19.993439284654567
1428222; 96008300; -19543457; -109863281; -85449218; -225830078; 1400000000; -900000000; 4400000000; 12273522186;1600000000; 2600000000; 4700000000; 5008339150; 1999340699; 50.083412385323555; 19.993439284654567
1770019; 95214843; -20971679; 91552734; -61035156; -18310546; 1400000000; -800000000; 4400000000; 11974488067;1600000000; 2600000000; 4800000000; 5008339150; 1999340699; 50.083412385323555; 19.993439284654567
2221679; 95471191; -21606445; -61035156; 42724609; -109863281; 1400000000; -800000000; 4400000000; 11974488067;1600000000; 2600000000; 4800000000; 5008339059; 1999340660; 50.083412385323555; 19.993439284654567
2502441; 94848632; -22399902; 67138671; -122070312; 18310546; 1300000000; -700000000; 4500000000; 11830075836;1600000000; 2600000000; 4900000000; 5008339059; 1999340660; 50.083412385323555; 19.993439284654567
3857421; 95117187; -22094726; -12207031; 85449218; 79345703; 1300000000; -800000000; 4500000000; 12160749816;1600000000; 2600000000; 4900000000; 5008338999; 1999340620; 50.083412385323555; 19.993439284654567
3991699; 95849609; -23474121; -219726562; -30517578; 219726562; 1400000000; -700000000; 4500000000; 11656504821;1600000000; 2600000000; 5000000000; 5008338999; 1999340620; 50.083412385323555; 19.993439284654567
4077148; 94116210; -22973632; -79345703; 42724609; 42724609; 1400000000; -700000000; 4400000000; 11974488067;1600000000; 2600000000; 5000000000; 5008338970; 1999340549; 50.083412385323555; 19.993439284654567
4992675; 93151855; -26782226; 1068115234; -2697753906; -311279296; 1300000000; -700000000; 4500000000; 11830075836;1600000000; 2600000000; 5100000000; 5008338970; 1999340549; 50.083412385323555; 19.993439284654567
1635742; 94482421; -27526855; -311279296; -1660156250; 372314453; 1300000000; -700000000; 4600000000; 11830075836;1600000000; 2600000000; 5100000000; 5008338960; 1999340549; 50.083412385323555; 19.993439284654567
-3344726; 95471191; -23327636; 170898437; -555419921; -170898437; 1100000000; -1300000000; 4400000000; 13976364135;1600000000; 2600000000; 5200000000; 5008338960; 1999340549; 50.083412385323555; 19.993439284654567
1696777; 95385742; -23095703; 256347656; -1165771484; 140380859; 1100000000; -1300000000; 4500000000; 13976364135;1600000000; 2600000000; 5200000000; 5008338960; 1999340600; 50.083412385323555; 19.993439284654567
-5578613; 93383789; -21374511; 280761718; -531005859; -775146484; 800000000; -1400000000; 4400000000; 15025511169;1600000000; 2600000000; 5300000000; 5008338960; 1999340600; 50.083412385323555; 19.993439284654567
-830078; 92297363; -27856445; -152587890; -427246093; 628662109; 800000000; -1400000000; 4400000000; 15025511169;1600000000; 2600000000; 5300000000; 5008338990; 1999340639; 50.083412385323555; 19.993439284654567
1721191; 93493652; -24157714; 482177734; -1562500000; -250244140; 200000000; -1700000000; 4500000000; 17329016113;1600000000; 2600000000; 5400000000; 5008338990; 1999340639; 50.083412385323555; 19.993439284654567
3503417; 94116210; -16857910; 115966796; -659179687; -244140625; 300000000; -1700000000; 4400000000; 16999200439;1600000000; 2600000000; 5400000000; 5008338970; 1999340660; 50.083412385323555; 19.993439284654567
-4992675; 96484375; -22082519; 6103515; 61035156; -12207031; 200000000; -1700000000; 4400000000; 16999200439;1600000000; 2600000000; 5500000000; 5008338970; 1999340660; 50.083412385323555; 19.993439284654567
-5383300; 95581054; -22521972; 24414062; 48828125; 67138671; 300000000; -1700000000; 4500000000; 16999200439;1600000000; 2600000000; 5500000000; 5008338930; 1999340690; 50.083412385323555; 19.993439284654567
-7202148; 95239257; -21923828; -61035156; -164794921; 61035156; 300000000; -1700000000; 4400000000; 16999200439;1600000000; 2600000000; 5600000000; 5008338930; 1999340690; 50.083412385323555; 19.993439284654567
-6347656; 95056152; -22192382; -42724609; -79345703; 18310546; 300000000; -1700000000; 4400000000; 16999200439;1600000000; 2600000000; 5600000000; 5008338879; 1999340710; 50.083412385323555; 19.993439284654567
-9350585; 96435546; -17517089; -878906250; -1391601562; 42724609; 0; -1800000000; 4300000000; 18000000000;1600000000; 2600000000; 5700000000; 5008338879; 1999340710; 50.083412385323555; 19.993439284654567
-8166503; 94665527; -21301269; 158691406; -738525390; 317382812; 0; -1800000000; 4300000000; 18000000000;1600000000; 2600000000; 5700000000; 5008338890; 1999340740; 50.083412385323555; 19.993439284654567
-7775878; 95605468; -19616699; -30517578; 61035156; -103759765; -100000000; -1800000000; 4300000000; 18317982482;1600000000; 2600000000; 5800000000; 5008338890; 1999340740; 50.083412385323555; 19.993439284654567
-9252929; 96447753; -17724609; -36621093; 134277343; -48828125; -100000000; -1800000000; 4300000000; 18317982482;1600000000; 2600000000; 5800000000; 5008338850; 1999340750; 50.083412385323555; 19.993439284654567
-6762695; 96240234; -18078613; -48828125; 158691406; -18310546; -100000000; -1800000000; 4300000000; 18317982482;1600000000; 2600000000; 5900000000; 5008338850; 1999340750; 50.083412385323555; 19.993439284654567
-6701660; 95959472; -18676757; -67138671; 177001953; -91552734; -100000000; -1800000000; 4300000000; 18317982482;1600000000; 2600000000; 5900000000; 5008338920; 1999340750; 50.083412385323555; 19.993439284654567
-6396484; 96044921; -17309570; -42724609; 73242187; -79345703; 0; -1800000000; 4400000000; 18000000000;1600000000; 2700000000; 0; 5008338920; 1999340750; 50.083412385323555; 19.993439284654567
-6420898; 95959472; -18713378; 0; -6103515; 30517578; -100000000; -1900000000; 4300000000; 18301280212;1600000000; 2700000000; 0; 5008339020; 1999340729; 50.083412385323555; 19.993439284654567
-8483886; 95312500; -17687988; -122070312; -18310546; 24414062; -200000000; -1800000000; 4300000000; 18634019470;1600000000; 2700000000; 100000000; 5008339020; 1999340729; 50.083412385323555; 19.993439284654567
-7910156; 95507812; -17846679; -12207031; -85449218; -18310546; -100000000; -1900000000; 4400000000; 18301280212;1600000000; 2700000000; 100000000; 5008339080; 1999340740; 50.083412385323555; 19.993439284654567
-6579589; 95812988; -16516113; -48828125; -36621093; 164794921; -100000000; -1800000000; 4300000000; 18317982482;1600000000; 2700000000; 200000000; 5008339080; 1999340740; 50.083412385323555; 19.993439284654567
-6579589; 96459960; -16821289; -73242187; -122070312; 122070312; -100000000; -1800000000; 4300000000; 18317982482;1600000000; 2700000000; 200000000; 5008339100; 1999340769; 50.083412385323555; 19.993439284654567
-1562500; 96728515; -20446777; 262451171; -170898437; -152587890; -200000000; -1800000000; 4300000000; 18634019470;1600000000; 2700000000; 300000000; 5008339100; 1999340769; 50.083412385323555; 19.993439284654567
-5395507; 95507812; -17175292; -158691406; -42724609; -183105468; -200000000; -1800000000; 4300000000; 18634019470;1600000000; 2700000000; 300000000; 5008339120; 1999340729; 50.083412385323555; 19.993439284654567
-7116699; 98144531; -23681640; -396728515; -555419921; 238037109; -600000000; -1400000000; 4400000000; 20319859313;1600000000; 2700000000; 400000000; 5008339120; 1999340729; 50.083412385323555; 19.993439284654567
451660; 95349121; -23144531; 36621093; -158691406; -524902343; -600000000; -1400000000; 4400000000; 20319859313;1600000000; 2700000000; 400000000; 5008339100; 1999340669; 50.083412385323555; 19.993439284654567
-2233886; 95300292; -21069335; 61035156; -537109375; -378417968; -600000000; -1300000000; 4400000000; 20477513122;1600000000; 2700000000; 500000000; 5008339100; 1999340669; 50.083412385323555; 19.993439284654567
-6018066; 95373535; -23107910; 671386718; -1745605468; -146484375; -700000000; -1300000000; 4400000000; 20830075073;1600000000; 2700000000; 500000000; 5008339180; 1999340690; 50.083412385323555; 19.993439284654567
-5517578; 95031738; -21777343; -238037109; -408935546; 140380859; -700000000; -1100000000; 4400000000; 21247119140;1600000000; 2700000000; 600000000; 5008339180; 1999340690; 50.083412385323555; 19.993439284654567
1599121; 96655273; -15771484; -732421875; -1666259765; 384521484; -800000000; -1100000000; 4400000000; 21602735900;1600000000; 2700000000; 600000000; 5008339240; 1999340620; 50.083412385323555; 19.993439284654567
-8410644; 94470214; -23974609; 152587890; -1062011718; 18310546; -800000000; -800000000; 4400000000; 22500000000;1600000000; 2700000000; 700000000; 5008339240; 1999340620; 50.083412385323555; 19.993439284654567
-5920410; 95751953; -25488281; -1037597656; -2551269531; 555419921; -900000000; -800000000; 4400000000; 22836645507;1600000000; 2700000000; 700000000; 5008339340; 1999340630; 50.083412385323555; 19.993439284654567
-10253906; 92993164; -25085449; 286865234; -524902343; 946044921; -900000000; -600000000; 4400000000; 23630992126;1600000000; 2700000000; 800000000; 5008339340; 1999340630; 50.083412385323555; 19.993439284654567
-11047363; 95593261; -25183105; -585937500; -1635742187; -421142578; -1000000000; -500000000; 4400000000; 24343496704;1600000000; 2700000000; 800000000; 5008339360; 1999340620; 50.083412385323555; 19.993439284654567
-10266113; 97924804; -17993164; 531005859; -415039062; 122070312; -1100000000; -400000000; 4400000000; 25001689147;1600000000; 2700000000; 900000000; 5008339360; 1999340620; 50.083412385323555; 19.993439284654567
-14855957; 94885253; -18298339; -732421875; -1171875000; 24414062; -1100000000; -500000000; 4300000000; 24555604553;1600000000; 2700000000; 900000000; 5008339350; 1999340600; 50.083412385323555; 19.993439284654567
-13720703; 94750976; -15869140; 91552734; 6103515; 262451171; -1000000000; -400000000; 4300000000; 24819857788;1600000000; 2700000000; 1000000000; 5008339350; 1999340600; 50.083412385323555; 19.993439284654567
-16320800; 94519042; -17175292; 48828125; -6103515; 109863281; -1000000000; -400000000; 4400000000; 24819857788;1600000000; 2700000000; 1000000000; 5008339330; 1999340590; 50.083412385323555; 19.993439284654567
-8679199; 96154785; -14807128; 1513671875; -860595703; 24414062; -1100000000; -100000000; 4300000000; 26480557250;1600000000; 2700000000; 1100000000; 5008339330; 1999340590; 50.083412385323555; 19.993439284654567
-14013671; 95617675; -12377929; 201416015; -311279296; -549316406; -1100000000; -100000000; 4400000000; 25969515991;1600000000; 2700000000; 1100000000; 5008339369; 1999340579; 50.083412385323555; 19.993439284654567
-17053222; 94738769; -12524414; 164794921; -738525390; -91552734; -1100000000; -100000000; 4300000000; 26480557250;1600000000; 2700000000; 1200000000; 5008339369; 1999340579; 50.083412385323555; 19.993439284654567
-9753417; 98657226; -17333984; -189208984; -3143310546; 762939453; -1100000000; 0; 4400000000; 27000000000;1600000000; 2700000000; 1200000000; 5008339360; 1999340579; 50.083412385323555; 19.993439284654567
-12048339; 97790527; -11181640; -256347656; -268554687; -219726562; -1100000000; 0; 4400000000; 27000000000;1600000000; 2700000000; 1300000000; 5008339360; 1999340579; 50.083412385323555; 19.993439284654567
-10607910; 87072753; -28613281; -3076171875; -4138183593; 2355957031; -1100000000; 0; 4400000000; 27000000000;1600000000; 2700000000; 1300000000; 5008339380; 1999340600; 50.083412385323555; 19.993439284654567
-7727050; 101000976; -12536621; 6103515; 73242187; 280761718; -1200000000; 0; 4400000000; 27000000000;1600000000; 2700000000; 1400000000; 5008339380; 1999340600; 50.083412385323555; 19.993439284654567
-10546875; 97314453; -8557128; 48828125; -390625000; 12207031; -1100000000; 0; 4400000000; 27000000000;1600000000; 2700000000; 1400000000; 5008339450; 1999340669; 50.083412385323555; 19.993439284654567
-10974121; 96582031; -6579589; -189208984; -408935546; -42724609; -1100000000; 200000000; 4300000000; 28030484008;1600000000; 2700000000; 1500000000; 5008339450; 1999340669; 50.083412385323555; 19.993439284654567
-4016113; 105175781; -26818847; -885009765; 579833984; 683593750; -1200000000; 300000000; 4400000000; 28403622436;1600000000; 2700000000; 1500000000; 5008339470; 1999340680; 50.083412385323555; 19.993439284654567
-10388183; 97375488; -2209472; -543212890; -823974609; -18310546; -1100000000; 300000000; 4300000000; 28525512695;1600000000; 2700000000; 1600000000; 5008339470; 1999340680; 50.083412385323555; 19.993439284654567
-9667968; 94921875; -7568359; -457763671; -1995849609; 396728515; -1200000000; 300000000; 4300000000; 28403622436;1600000000; 2700000000; 1600000000; 5008339450; 1999340750; 50.083412385323555; 19.993439284654567
-7031250; 96948242; -5737304; -225830078; -79345703; 61035156; -1000000000; 600000000; 4400000000; 30096377563;1600000000; 2700000000; 1700000000; 5008339450; 1999340750; 50.083412385323555; 19.993439284654567
-4882812; 99157714; -7592773; 91552734; -268554687; -366210937; -1000000000; 600000000; 4400000000; 30096377563;1600000000; 2700000000; 1700000000; 5008339480; 1999340769; 50.083412385323555; 19.993439284654567
-4943847; 97363281; -7690429; -250244140; 506591796; -146484375; -1100000000; 600000000; 4300000000; 29861047363;1600000000; 2700000000; 1800000000; 5008339480; 1999340769; 50.083412385323555; 19.993439284654567
-7434082; 96240234; -5126953; -415039062; 292968750; -274658203; -1200000000; 500000000; 4400000000; 29261987304;1600000000; 2700000000; 1800000000; 5008339500; 1999340810; 50.083412385323555; 19.993439284654567
-6176757; 97253417; -9326171; -183105468; 3564453125; -24414062; -1300000000; 0; 4200000000; 27000000000;1600000000; 2700000000; 1900000000; 5008339500; 1999340810; 50.083412385323555; 19.993439284654567
-8056640; 97448730; -6994628; 335693359; -787353515; -250244140; -1300000000; 0; 4200000000; 27000000000;1600000000; 2700000000; 1900000000; 5008339540; 1999340819; 50.083412385323555; 19.993439284654567
-3405761; 98364257; -9265136; -122070312; 54931640; -213623046; -1300000000; 100000000; 4200000000; 27408563232;1600000000; 2700000000; 2000000000; 5008339540; 1999340819; 50.083412385323555; 19.993439284654567
-4772949; 97924804; -8581542; -103759765; -12207031; 0; -1300000000; 100000000; 4200000000; 27439871215;1600000000; 2700000000; 2000000000; 5008339549; 1999340849; 50.083412385323555; 19.993439284654567
-6604003; 97167968; -8618164; -280761718; 189208984; -115966796; -1300000000; 100000000; 4200000000; 27439871215;1600000000; 2700000000; 2100000000; 5008339549; 1999340849; 50.083412385323555; 19.993439284654567
-6127929; 97729492; -8374023; -18310546; -292968750; -61035156; -1300000000; 0; 4200000000; 27000000000;1600000000; 2700000000; 2100000000; 5008339510; 1999340840; 50.083412385323555; 19.993439284654567
-5187988; 98266601; -7885742; 115966796; 42724609; -67138671; -1400000000; -100000000; 4300000000; 26591436767;1600000000; 2700000000; 2200000000; 5008339510; 1999340840; 50.083412385323555; 19.993439284654567
-7495117; 96191406; -7299804; 91552734; -91552734; -6103515; -1300000000; -100000000; 4200000000; 26560131835;1600000000; 2700000000; 2200000000; 5008339450; 1999340859; 50.083412385323555; 19.993439284654567
-5737304; 98242187; -7751464; 67138671; 12207031; 85449218; -1400000000; 0; 4200000000; 27000000000;1600000000; 2700000000; 2300000000; 5008339450; 1999340859; 50.083412385323555; 19.993439284654567
-5664062; 97558593; -7678222; 134277343; 30517578; 115966796; -1400000000; 0; 4200000000; 27000000000;1600000000; 2700000000; 2300000000; 5008339400; 1999340849; 50.083412385323555; 19.993439284654567
-7714843; 97216796; -8203125; -103759765; -134277343; -54931640; -1400000000; -100000000; 4200000000; 27000000000;1600000000; 2700000000; 2400000000; 5008339400; 1999340849; 50.083412385323555; 19.993439284654567
-5737304; 97570800; -8520507; 128173828; -97656250; 48828125; -1400000000; 0; 4200000000; 27000000000;1600000000; 2700000000; 2400000000; 5008339350; 1999340840; 50.083412385323555; 19.993439284654567
-5786132; 97668457; -8020019; 24414062; -85449218; 48828125; -1400000000; 0; 4200000000; 27000000000;1600000000; 2700000000; 2500000000; 5008339350; 1999340840; 50.083412385323555; 19.993439284654567
