ax; ay; az; gx; gy; gz; magx; magy; magz; magN; th; tm; ts; lati; loni; lat; lon
-4858398; 93469238; 6457519; 1129150390; 1739501953; 2673339843; -3800000000; 6400000000; 10300000000; 32930029296;1700000000; 300000000; 5500000000; 5008318020; 1999379889; 50.083187881595414; 19.993807210172907
3515625; 100292968; 5126953; -927734375; 970458984; -1501464843; -4000000000; 6400000000; 10200000000; 32799462890;1700000000; 300000000; 5500000000; 5008318759; 1999380630; 50.083187881595414; 19.993807210172907
-12561035; 98828125; -7934570; -579833984; 1354980468; -1116943359; -4100000000; 6800000000; 10800000000; 32891250610;1700000000; 300000000; 5600000000; 5008318759; 1999380630; 50.083187881595414; 19.993807210172907
-16125488; 102722167; -4785156; -909423828; 2600097656; -543212890; -4000000000; 6700000000; 10800000000; 32916220092;1700000000; 300000000; 5600000000; 5008319570; 1999381139; 50.083187881595414; 19.993807210172907
8996582; 91967773; -8349609; 354003906; -2886962890; 976562500; -4000000000; 6800000000; 11100000000; 32953442382;1700000000; 300000000; 5700000000; 5008319570; 1999381139; 50.08319905147885; 19.993819153815412
-11706542; 83056640; -4492187; -1208496093; -1623535156; -1281738281; -3900000000; 6800000000; 11200000000; 33016442871;1700000000; 300000000; 5700000000; 5008320490; 1999381660; 50.08319905147885; 19.993819153815412
-16857910; 103552246; -13586425; 1110839843; -1300048828; 341796875; -4000000000; 6400000000; 11200000000; 32839248657;1700000000; 300000000; 5800000000; 5008320490; 1999381660; 50.08319905147885; 19.993819153815412
-16772460; 102246093; -19921875; 2166748046; -2728271484; -1367187500; -4000000000; 6600000000; 11300000000; 32878158569;1700000000; 300000000; 5800000000; 5008321390; 1999382210; 50.08319905147885; 19.993819153815412
-268554; 88916015; -2917480; 335693359; 1684570312; -1794433593; -4000000000; 6300000000; 11300000000; 32758770751;1700000000; 300000000; 5900000000; 5008321390; 1999382210; 50.083218914625526; 19.9938234719214
-22009277; 83496093; -15686035; 427246093; 250244140; -708007812; -3900000000; 6300000000; 11400000000; 32824050903;1700000000; 300000000; 5900000000; 5008322130; 1999382860; 50.083218914625526; 19.9938234719214
-8996582; 118286132; -7641601; -2758789062; 2008056640; 1855468750; -3700000000; 6500000000; 11500000000; 33035012817;1700000000; 400000000; 0; 5008322130; 1999382860; 50.08322868315677; 19.9938214169398
-3479003; 82788085; 3002929; 732421875; -268554687; 640869140; -3800000000; 6500000000; 11500000000; 32968875122;1700000000; 400000000; 0; 5008323160; 1999383209; 50.08322868315677; 19.9938214169398
-14172363; 91442871; -12341308; -756835937; 311279296; -1300048828; -3700000000; 6800000000; 11500000000; 33144860839;1700000000; 400000000; 100000000; 5008323160; 1999383209; 50.08323388560589; 19.99382778281882
-13659667; 99902343; -11743164; -897216796; 1635742187; -976562500; -3600000000; 6700000000; 11500000000; 33175027465;1700000000; 400000000; 100000000; 5008323950; 1999383670; 50.08323388560589; 19.99382778281882
15075683; 89782714; -15966796; -671386718; -7641601562; 555419921; -3700000000; 7300000000; 11200000000; 33312185668;1700000000; 400000000; 200000000; 5008323950; 1999383670; 50.08324268428768; 19.993841683605506
-7568359; 81457519; 3393554; 1159667968; -4968261718; 2557373046; -3700000000; 7400000000; 11200000000; 33343493652;1700000000; 400000000; 200000000; 5008324720; 1999384130; 50.083256359675225; 19.99384570613928
-41394042; 117602539; -817871; 24414062; -3619384765; -1013183593; -3600000000; 7500000000; 11200000000; 33435900878;1700000000; 400000000; 300000000; 5008324720; 1999384130; 50.083256359675225; 19.99384570613928
28820800; 89184570; -14929199; 1086425781; -3125000000; -5957031250; -3600000000; 7700000000; 11100000000; 33494238281;1700000000; 400000000; 300000000; 5008325540; 1999384650; 50.083256359675225; 19.99384570613928
292968; 80920410; -11047363; 1245117187; 2172851562; -280761718; -3400000000; 7400000000; 11000000000; 33532315063;1700000000; 400000000; 400000000; 5008325540; 1999384650; 50.083268486447906; 19.993849963201068
-21752929; 89929199; 1440429; 750732421; -628662109; 1470947265; -3400000000; 7400000000; 10900000000; 33532315063;1700000000; 400000000; 400000000; 5008326330; 1999385080; 50.083268486447906; 19.993849963201068
24316406; 119079589; 7666015; 1165771484; 4815673828; 3106689453; -3700000000; 7100000000; 10700000000; 33247479248;1700000000; 400000000; 500000000; 5008326330; 1999385080; 50.08327661254301; 19.993854139350447
-16735839; 89160156; 31164550; 79345703; 1953125000; 1629638671; -3800000000; 7000000000; 10700000000; 33150436401;1700000000; 400000000; 500000000; 5008327190; 1999385100; 50.08327661254301; 19.993854139350447
-3149414; 89135742; 11450195; -677490234; 1837158203; -103759765; -4100000000; 7000000000; 10500000000; 32964190673;1700000000; 400000000; 600000000; 5008327190; 1999385100; 50.08327661254301; 19.993854139350447
-6616210; 96276855; 12817382; -317382812; 2056884765; 189208984; -4200000000; 7000000000; 10500000000; 32903625488;1700000000; 400000000; 600000000; 5008327830; 1999385119; 50.08327661254301; 19.993854139350447
-3796386; 99389648; 14245605; 195312500; -1922607421; -292968750; -4000000000; 6900000000; 10500000000; 32989865112;1700000000; 400000000; 700000000; 5008327830; 1999385119; 50.083292492023254; 19.993861812871472
8166503; 108642578; 16247558; -836181640; -2490234375; 567626953; -4000000000; 6900000000; 10600000000; 32989865112;1700000000; 400000000; 700000000; 5008328299; 1999385010; 50.083292492023254; 19.993861812871472
15612792; 94958496; 8886718; 964355468; 451660156; 1385498046; -4700000000; 7100000000; 10100000000; 32649658203;1700000000; 400000000; 800000000; 5008328299; 1999385010; 50.083298662023566; 19.99385878714283
21179199; 98303222; 10144042; 366210937; -152587890; -18310546; -4700000000; 7200000000; 10100000000; 32686437988;1700000000; 400000000; 800000000; 5008328280; 1999384960; 50.083298662023566; 19.99385878714283
14978027; 98669433; 6872558; 85449218; -457763671; -714111328; -4500000000; 7600000000; 10200000000; 32993142700;1700000000; 400000000; 900000000; 5008328280; 1999384960; 50.083298662023566; 19.99385878714283
8544921; 95703125; 7543945; -238037109; -390625000; -73242187; -4400000000; 7600000000; 10300000000; 32993142700;1700000000; 400000000; 900000000; 5008328280; 1999384950; 50.083298662023566; 19.99385878714283
10668945; 97778320; 5053710; -30517578; -555419921; 219726562; -4300000000; 7500000000; 10400000000; 33017291259;1700000000; 400000000; 1000000000; 5008328280; 1999384950; 50.08330260070913; 19.99385462452052
11254882; 97351074; 3967285; 18310546; -97656250; -567626953; -4300000000; 7600000000; 10400000000; 33049926757;1700000000; 400000000; 1000000000; 5008328330; 1999384950; 50.08330260070913; 19.99385462452052
5273437; 97204589; 5383300; 67138671; 54931640; -97656250; -4200000000; 7500000000; 10500000000; 33075115966;1700000000; 400000000; 1100000000; 5008328330; 1999384950; 50.08329390559651; 19.9938471054638
5322265; 97705078; 6896972; 91552734; 12207031; -18310546; -4200000000; 7500000000; 10500000000; 33075115966;1700000000; 400000000; 1100000000; 5008328380; 1999384920; 50.08329390559651; 19.9938471054638
6420898; 97595214; 5761718; -67138671; -158691406; 12207031; -4100000000; 7600000000; 10500000000; 33165429687;1700000000; 400000000; 1200000000; 5008328380; 1999384920; 50.08329390559651; 19.9938471054638
6726074; 97741699; 5456542; 128173828; 402832031; -48828125; -4100000000; 7600000000; 10600000000; 33165429687;1700000000; 400000000; 1200000000; 5008328419; 1999384939; 50.08329390559651; 19.9938471054638
-3186035; 101489257; 8483886; -1037597656; 1501464843; -842285156; -4100000000; 7300000000; 10600000000; 33067953491;1700000000; 400000000; 1300000000; 5008328419; 1999384939; 50.083282723736474; 19.99383850277948
-9924316; 94665527; 6481933; -872802734; 1800537109; -646972656; -4100000000; 7100000000; 10600000000; 32999505615;1700000000; 400000000; 1300000000; 5008328520; 1999385070; 50.083282723736474; 19.99383850277948
-3503417; 106689453; 17163085; 79345703; -1391601562; 299072265; -3900000000; 7000000000; 10700000000; 33087594604;1700000000; 400000000; 1400000000; 5008328520; 1999385070; 50.08327366368528; 19.993836611844742
-9594726; 90014648; 8691406; -219726562; -1129150390; -347900390; -3900000000; 7000000000; 10700000000; 33087594604;1700000000; 400000000; 1400000000; 5008328490; 1999385170; 50.08327366368528; 19.993836611844742
-5505371; 95336914; 17700195; -1403808593; -231933593; -323486328; -3900000000; 7100000000; 10700000000; 33122021484;1700000000; 400000000; 1500000000; 5008328490; 1999385170; 50.08326218273709; 19.99384368366546
-2136230; 93994140; 12158203; -1086425781; -476074218; 225830078; -4000000000; 7000000000; 10700000000; 33025509643;1700000000; 400000000; 1500000000; 5008328419; 1999385209; 50.08326218273709; 19.99384368366546
598144; 97033691; 22338867; 219726562; 61035156; 244140625; -4200000000; 7000000000; 10500000000; 32867132568;1700000000; 400000000; 1600000000; 5008328419; 1999385209; 50.083271102893214; 19.99383365884023
-256347; 96130371; 21777343; 97656250; 177001953; 12207031; -4200000000; 6900000000; 10500000000; 32867132568;1700000000; 400000000; 1600000000; 5008328400; 1999385160; 50.083271102893214; 19.99383365884023
-1110839; 94738769; 21362304; 274658203; 213623046; 6103515; -4200000000; 6900000000; 10600000000; 32867132568;1700000000; 400000000; 1700000000; 5008328400; 1999385160; 50.083271102893214; 19.99383365884023
-183105; 97082519; 18444824; 360107421; 671386718; 463867187; -4200000000; 7000000000; 10500000000; 32903625488;1700000000; 400000000; 1700000000; 5008328419; 1999385140; 50.083271102893214; 19.99383365884023
1367187; 97387695; 12878417; 97656250; -201416015; -54931640; -4200000000; 7100000000; 10500000000; 32939361572;1700000000; 400000000; 1800000000; 5008328419; 1999385140; 50.083271102893214; 19.99383365884023
1611328; 97204589; 13232421; -134277343; -152587890; -140380859; -4200000000; 7100000000; 10500000000; 32939361572;1700000000; 400000000; 1800000000; 5008328450; 1999385149; 50.083271102893214; 19.99383365884023
-390625; 96936035; 15844726; -79345703; 177001953; -67138671; -4200000000; 6900000000; 10500000000; 32867132568;1700000000; 400000000; 1900000000; 5008328450; 1999385149; 50.083271102893214; 19.99383365884023
-1354980; 96374511; 16015625; -12207031; 195312500; -54931640; -4200000000; 7000000000; 10500000000; 32903625488;1700000000; 400000000; 1900000000; 5008328430; 1999385140; 50.083271102893214; 19.99383365884023
-2575683; 97338867; 12939453; 79345703; -201416015; -85449218; -4200000000; 6900000000; 10600000000; 32867132568;1700000000; 400000000; 2000000000; 5008328430; 1999385140; 50.083271102893214; 19.99383365884023
-1989746; 98693847; 11743164; -103759765; -744628906; -445556640; -4200000000; 6900000000; 10600000000; 32867132568;1700000000; 400000000; 2000000000; 5008328440; 1999385149; 50.083271102893214; 19.99383365884023
-1965332; 97399902; 26892089; 12207031; 396728515; -268554687; -4100000000; 6700000000; 10700000000; 32853585815;1700000000; 400000000; 2100000000; 5008328440; 1999385149; 50.083271102893214; 19.99383365884023
-8178710; 93103027; 27404785; 183105468; 1379394531; 67138671; -3900000000; 6700000000; 10700000000; 32979678344;1700000000; 400000000; 2100000000; 5008328440; 1999385160; 50.083271102893214; 19.99383365884023
-5078125; 94848632; 23449707; 12207031; -67138671; 0; -4000000000; 6800000000; 10600000000; 32953442382;1700000000; 400000000; 2200000000; 5008328440; 1999385160; 50.083271102893214; 19.99383365884023
-5651855; 94458007; 24328613; 12207031; -109863281; 140380859; -4000000000; 6800000000; 10700000000; 32953442382;1700000000; 400000000; 2200000000; 5008328460; 1999385140; 50.083271102893214; 19.99383365884023
366210; 102392578; 24230957; 640869140; -396728515; 372314453; -4100000000; 6900000000; 10700000000; 32928109741;1700000000; 400000000; 2300000000; 5008328460; 1999385140; 50.083271102893214; 19.99383365884023
-5639648; 94714355; 22912597; -54931640; 1165771484; -1202392578; -4100000000; 6900000000; 10600000000; 32928109741;1700000000; 400000000; 2300000000; 5008328470; 1999385140; 50.083271102893214; 19.99383365884023
-5932617; 96105957; 17553710; 347900390; 921630859; 256347656; -4000000000; 6800000000; 10700000000; 32953442382;1700000000; 400000000; 2400000000; 5008328470; 1999385140; 50.083271102893214; 19.99383365884023
-6518554; 96887207; 15429687; 213623046; 323486328; 207519531; -4000000000; 6800000000; 10700000000; 32953442382;1700000000; 400000000; 2400000000; 5008328490; 1999385140; 50.083271102893214; 19.99383365884023
-4113769; 97131347; 16821289; -67138671; -177001953; -54931640; -4000000000; 7000000000; 10600000000; 33025509643;1700000000; 400000000; 2500000000; 5008328490; 1999385140; 50.083271102893214; 19.99383365884023
-4516601; 95495605; 17895507; -183105468; -329589843; -97656250; -4000000000; 6900000000; 10600000000; 32989865112;1700000000; 400000000; 2500000000; 5008328540; 1999385119; 50.083271102893214; 19.99383365884023
-2026367; 95544433; 19348144; 280761718; 592041015; 543212890; -4000000000; 7000000000; 10700000000; 33025509643;1700000000; 400000000; 2600000000; 5008328540; 1999385119; 50.083271102893214; 19.99383365884023
1098632; 97204589; 18688964; 103759765; 457763671; 6103515; -4100000000; 7000000000; 10600000000; 32964190673;1700000000; 400000000; 2600000000; 5008328560; 1999385100; 50.083271102893214; 19.99383365884023
-1013183; 96093750; 19104003; -85449218; 274658203; 18310546; -4100000000; 7000000000; 10500000000; 32964190673;1700000000; 400000000; 2700000000; 5008328560; 1999385100; 50.0832822252617; 19.993844130820957
-988769; 96179199; 18920898; -115966796; 317382812; -6103515; -4200000000; 7000000000; 10600000000; 32903625488;1700000000; 400000000; 2700000000; 5008328630; 1999385080; 50.0832822252617; 19.993844130820957
2050781; 96130371; 16833496; 463867187; -524902343; 592041015; -4200000000; 7100000000; 10600000000; 32939361572;1700000000; 400000000; 2800000000; 5008328630; 1999385080; 50.0832822252617; 19.993844130820957
4333496; 98974609; 15856933; -42724609; -512695312; -54931640; -4300000000; 7200000000; 10500000000; 32915344238;1700000000; 400000000; 2800000000; 5008328690; 1999385070; 50.0832822252617; 19.993844130820957
2709960; 96313476; 17541503; 42724609; -6103515; 12207031; -4200000000; 7100000000; 10500000000; 32939361572;1700000000; 400000000; 2900000000; 5008328690; 1999385070; 50.0832822252617; 19.993844130820957
2185058; 95629882; 17407226; -115966796; -85449218; -323486328; -4200000000; 7100000000; 10500000000; 32939361572;1700000000; 400000000; 2900000000; 5008328690; 1999385059; 50.0832822252617; 19.993844130820957
1318359; 97253417; 16857910; 6103515; 183105468; -109863281; -4200000000; 7100000000; 10600000000; 32939361572;1700000000; 400000000; 3000000000; 5008328690; 1999385059; 50.0832822252617; 19.993844130820957
805664; 96276855; 18139648; 164794921; 476074218; 189208984; -4200000000; 7100000000; 10600000000; 32939361572;1700000000; 400000000; 3000000000; 5008328660; 1999385040; 50.0832822252617; 19.993844130820957
927734; 96740722; 16076660; -30517578; -146484375; -6103515; -4200000000; 7100000000; 10600000000; 32939361572;1700000000; 400000000; 3100000000; 5008328660; 1999385040; 50.0832822252617; 19.993844130820957
646972; 95397949; 15283203; 18310546; -207519531; -30517578; -4200000000; 7100000000; 10500000000; 32939361572;1700000000; 400000000; 3100000000; 5008328690; 1999385050; 50.0832822252617; 19.993844130820957
2734375; 97460937; 16979980; -122070312; 207519531; -225830078; -4200000000; 7200000000; 10500000000; 32974356079;1700000000; 400000000; 3200000000; 5008328690; 1999385050; 50.0832822252617; 19.993844130820957
1318359; 96008300; 17187500; -189208984; 30517578; -286865234; -4200000000; 7100000000; 10600000000; 32939361572;1700000000; 400000000; 3200000000; 5008328770; 1999385040; 50.0832822252617; 19.993844130820957
-610351; 97167968; 15747070; 262451171; -67138671; 67138671; -4100000000; 7100000000; 10700000000; 32999505615;1700000000; 400000000; 3300000000; 5008328770; 1999385040; 50.0832822252617; 19.993844130820957
122070; 97082519; 17028808; -24414062; 85449218; -48828125; -4100000000; 7100000000; 10700000000; 32999505615;1700000000; 400000000; 3300000000; 5008328870; 1999384999; 50.0832822252617; 19.993844130820957
-3454589; 96728515; 16467285; 152587890; 311279296; -115966796; -4000000000; 7000000000; 10600000000; 33025509643;1700000000; 400000000; 3400000000; 5008328870; 1999384999; 50.0832822252617; 19.993844130820957
-4553222; 96020507; 14978027; 244140625; 244140625; -48828125; -4100000000; 7000000000; 10700000000; 32964190673;1700000000; 400000000; 3400000000; 5008328890; 1999384999; 50.0832822252617; 19.993844130820957
-4711914; 97753906; 12744140; 122070312; -262451171; 238037109; -3900000000; 7100000000; 10700000000; 33122021484;1700000000; 400000000; 3500000000; 5008328890; 1999384999; 50.0832822252617; 19.993844130820957
-5908203; 96691894; 12646484; 152587890; -231933593; 164794921; -3900000000; 7100000000; 10700000000; 33122021484;1700000000; 400000000; 3500000000; 5008328980; 1999384990; 50.0832822252617; 19.993844130820957
-2185058; 96911621; 9216308; 140380859; 48828125; 122070312; -4000000000; 7300000000; 10700000000; 33127966308;1700000000; 400000000; 3600000000; 5008328980; 1999384990; 50.083269883070614; 19.993842554275677
-1184082; 97570800; 9655761; -1556396484; -317382812; 213623046; -4000000000; 7300000000; 10700000000; 33127966308;1700000000; 400000000; 3600000000; 5008328990; 1999384960; 50.083269883070614; 19.993842554275677
-11657714; 83288574; -11523437; -3918457031; -6433105468; 1171875000; -3500000000; 7900000000; 10800000000; 33610485839;1700000000; 400000000; 3700000000; 5008328990; 1999384960; 50.083269883070614; 19.993842554275677
3112792; 106469726; 19042968; -2679443359; -2978515625; -402832031; -3700000000; 7700000000; 10800000000; 33433480834;1700000000; 400000000; 3700000000; 5008329010; 1999384939; 50.083269883070614; 19.993842554275677
-964355; 95251464; 4541015; 506591796; 726318359; -402832031; -3600000000; 7900000000; 10700000000; 33550140380;1700000000; 400000000; 3800000000; 5008329010; 1999384939; 50.083269883070614; 19.993842554275677
-6066894; 96520996; 1977539; 708007812; 48828125; -2209472656; -3500000000; 7900000000; 10800000000; 33610485839;1700000000; 400000000; 3800000000; 5008328990; 1999384909; 50.083269883070614; 19.993842554275677
-2099609; 97644042; -4003906; 12207031; -146484375; 195312500; -3500000000; 8100000000; 10700000000; 33663088989;1700000000; 400000000; 3900000000; 5008328990; 1999384909; 50.083269883070614; 19.993842554275677
-427246; 97338867; -4174804; 30517578; -445556640; 250244140; -3500000000; 8100000000; 10700000000; 33663088989;1700000000; 400000000; 3900000000; 5008329029; 1999384869; 50.083269883070614; 19.993842554275677
2185058; 97436523; -5151367; 24414062; -201416015; 213623046; -3600000000; 8300000000; 10700000000; 33655194091;1700000000; 400000000; 4000000000; 5008329029; 1999384869; 50.083269883070614; 19.993842554275677
3149414; 96972656; -4064941; 73242187; -109863281; 122070312; -3500000000; 8300000000; 10600000000; 33713546752;1700000000; 400000000; 4000000000; 5008329060; 1999384809; 50.083269883070614; 19.993842554275677
3991699; 97290039; -5859375; 36621093; -30517578; -30517578; -3600000000; 8300000000; 10600000000; 33655194091;1700000000; 400000000; 4100000000; 5008329060; 1999384809; 50.083269883070614; 19.993842554275677
4528808; 98193359; -5664062; 61035156; -61035156; -12207031; -3600000000; 8300000000; 10700000000; 33655194091;1700000000; 400000000; 4100000000; 5008329080; 1999384759; 50.083269883070614; 19.993842554275677
3308105; 97558593; -6286621; -6103515; -6103515; 48828125; -3600000000; 8300000000; 10600000000; 33655194091;1700000000; 400000000; 4200000000; 5008329080; 1999384759; 50.083269883070614; 19.993842554275677
3723144; 97790527; -6054687; -6103515; -61035156; 42724609; -3600000000; 8300000000; 10600000000; 33655194091;1700000000; 400000000; 4200000000; 5008329089; 1999384700; 50.083269883070614; 19.993842554275677
5261230; 97644042; -5676269; -115966796; -36621093; -18310546; -3600000000; 8300000000; 10600000000; 33655194091;1700000000; 400000000; 4300000000; 5008329089; 1999384700; 50.083269883070614; 19.993842554275677
4638671; 97851562; -6103515; -103759765; -12207031; -24414062; -3600000000; 8300000000; 10600000000; 33655194091;1700000000; 400000000; 4300000000; 5008329120; 1999384640; 50.083269883070614; 19.993842554275677
280761; 98315429; -8374023; 189208984; -67138671; 347900390; -3600000000; 8100000000; 10600000000; 33603750610;1700000000; 400000000; 4400000000; 5008329120; 1999384640; 50.083269883070614; 19.993842554275677
976562; 97326660; -6689453; -280761718; -103759765; 0; -3600000000; 8200000000; 10600000000; 33629733276;1700000000; 400000000; 4400000000; 5008329240; 1999384580; 50.083269883070614; 19.993842554275677
207519; 95629882; -7800292; 1580810546; 1232910156; -1171875000; -4200000000; 8300000000; 10200000000; 33315951538;1700000000; 400000000; 4500000000; 5008329240; 1999384580; 50.08328450614677; 19.99384017561239
-4492187; 95507812; -10266113; 1257324218; 286865234; -915527343; -4100000000; 8300000000; 10300000000; 33398321533;1700000000; 400000000; 4500000000; 5008330000; 1999384560; 50.08328450614677; 19.99384017561239
-5578613; 150891113; -3881835; 3533935546; 6933593750; 2941894531; -4100000000; 7900000000; 10400000000; 33257125854;1700000000; 400000000; 4600000000; 5008330000; 1999384560; 50.08328450614677; 19.99384017561239
14929199; 75671386; -13781738; 238037109; 1971435546; 1330566406; -4100000000; 8000000000; 10500000000; 33286486816;1700000000; 400000000; 4600000000; 5008330710; 1999384340; 50.08328450614677; 19.99384017561239
-11938476; 85437011; -20837402; 1385498046; -4180908203; -2874755859; -3900000000; 6900000000; 11000000000; 33052410888;1700000000; 400000000; 4700000000; 5008330710; 1999384340; 50.08329378797228; 19.993835663589074
-22985839; 106384277; -10986328; -476074218; 836181640; -1751708984; -3700000000; 7000000000; 10900000000; 33214035034;1700000000; 400000000; 4700000000; 5008331470; 1999383950; 50.08329378797228; 19.993835663589074
4187011; 82885742; -8618164; -781250000; 1489257812; -579833984; -4100000000; 7300000000; 10500000000; 33067953491;1700000000; 400000000; 4800000000; 5008331470; 1999383950; 50.08329378797228; 19.993835663589074
-13281250; 83728027; -11376953; -201416015; 3594970703; 1019287109; -4100000000; 7100000000; 10600000000; 32999505615;1700000000; 400000000; 4800000000; 5008332240; 1999383629; 50.08329378797228; 19.993835663589074
-8129882; 94494628; -14233398; 1226806640; -3570556640; 1184082031; -3800000000; 7300000000; 10800000000; 33250085449;1700000000; 400000000; 4900000000; 5008332240; 1999383629; 50.083314229933976; 19.9938306251729
-1794433; 74230957; -3759765; -1501464843; -3881835937; -396728515; -3900000000; 7300000000; 10700000000; 33188677978;1700000000; 400000000; 4900000000; 5008333240; 1999383299; 50.083314229933976; 19.9938306251729
-6970214; 132238769; -31921386; 5792236328; 848388671; 3204345703; -3600000000; 7500000000; 11000000000; 33465383911;1700000000; 400000000; 5000000000; 5008333240; 1999383299; 50.0833261185812; 19.993828524123803
-4101562; 78796386; -35839843; 2960205078; -4754638671; 2508544921; -3300000000; 7500000000; 11200000000; 33625051879;1700000000; 400000000; 5000000000; 5008334410; 1999383280; 50.0833261185812; 19.993828524123803
-11108398; 96875000; -21228027; 299072265; -244140625; -1623535156; -3500000000; 7400000000; 11200000000; 33468710327;1700000000; 400000000; 5100000000; 5008334410; 1999383280; 50.08333606111689; 19.993831335218587
-35388183; 106091308; -46899414; 451660156; -2716064453; 2331542968; -3300000000; 7400000000; 11300000000; 33596569824;1700000000; 400000000; 5100000000; 5008335440; 1999383090; 50.08333606111689; 19.993831335218587
-11120605; 88769531; -10559082; 421142578; 2697753906; -1068115234; -3500000000; 7600000000; 11000000000; 33527267456;1700000000; 400000000; 5200000000; 5008335440; 1999383090; 50.08334579788096; 19.993828732990398
-17907714; 89685058; -15136718; 2343750000; 1312255859; 610351562; -3500000000; 7600000000; 11000000000; 33527267456;1700000000; 400000000; 5200000000; 5008336300; 1999382830; 50.08334579788096; 19.993828732990398
-34204101; 112817382; -25305175; -2325439453; 524902343; 3619384765; -3400000000; 7700000000; 11000000000; 33617572021;1700000000; 400000000; 5300000000; 5008336300; 1999382830; 50.083361268802015; 19.993827256937486
-8520507; 82043457; -20483398; 3222656250; -1892089843; 2600097656; -3500000000; 7600000000; 11100000000; 33527267456;1700000000; 400000000; 5300000000; 5008336950; 1999382850; 50.083361268802015; 19.993827256937486
-10681152; 88049316; -34802246; 543212890; -2093505859; 177001953; -2900000000; 8300000000; 11000000000; 34074072265;1700000000; 400000000; 5400000000; 5008336950; 1999382850; 50.083361268802015; 19.993827256937486
-17260742; 95764160; -23596191; 384521484; -592041015; 933837890; -2800000000; 8300000000; 11000000000; 34135821533;1700000000; 400000000; 5400000000; 5008336920; 1999382920; 50.083361268802015; 19.993827256937486
-12023925; 87622070; -20983886; -561523437; 598144531; -494384765; -2900000000; 8400000000; 10900000000; 34095336914;1700000000; 400000000; 5500000000; 5008336920; 1999382920; 50.08337169795114; 19.9938237139712
-3601074; 99462890; -24145507; 347900390; -329589843; 305175781; -2900000000; 8400000000; 10900000000; 34095336914;1700000000; 400000000; 5500000000; 5008336960; 1999382920; 50.08337169795114; 19.9938237139712
-20971679; 99707031; -21423339; 567626953; -866699218; -207519531; -2600000000; 8600000000; 10900000000; 34317858886;1700000000; 400000000; 5600000000; 5008336960; 1999382920; 50.08337169795114; 19.9938237139712
-5566406; 100109863; -29992675; -2465820312; -219726562; -4077148437; -2500000000; 8500000000; 10900000000; 34361047363;1700000000; 400000000; 5600000000; 5008337119; 1999382890; 50.08337169795114; 19.9938237139712
-18811035; 98486328; -51391601; -3723144531; 866699218; 3820800781; -2800000000; 8900000000; 10500000000; 34253607177;1700000000; 400000000; 5700000000; 5008337119; 1999382890; 50.08337169795114; 19.9938237139712
14428710; 105627441; -22778320; -2062988281; 653076171; 744628906; -3100000000; 8900000000; 10600000000; 34079605102;1700000000; 400000000; 5700000000; 5008337020; 1999382899; 50.08337169795114; 19.9938237139712
-16833496; 93823242; -7482910; 2612304687; -1062011718; -3613281250; -3500000000; 8500000000; 10700000000; 33761984252;1700000000; 400000000; 5800000000; 5008337020; 1999382899; 50.08337169795114; 19.9938237139712
3479003; 73852539; 14135742; -4937744140; 2581787109; 5590820312; -3600000000; 8400000000; 10700000000; 33680139160;1700000000; 400000000; 5800000000; 5008337070; 1999382910; 50.08337169795114; 19.9938237139712
-3369140; 105017089; -476074; 1544189453; -646972656; 610351562; -2900000000; 7900000000; 11100000000; 33984240722;1700000000; 400000000; 5900000000; 5008337070; 1999382910; 50.08337169795114; 19.9938237139712
-18823242; 101647949; -5603027; -2252197265; 1904296875; 5059814453; -3000000000; 8100000000; 11000000000; 33967687988;1700000000; 400000000; 5900000000; 5008337010; 1999382740; 50.08337169795114; 19.9938237139712
13586425; 102502441; -207519; 579833984; -976562500; -299072265; -4000000000; 8000000000; 10600000000; 33343493652;1700000000; 500000000; 0; 5008337010; 1999382740; 50.08337169795114; 19.9938237139712
3308105; 90783691; -5200195; -1037597656; -769042968; 299072265; -3700000000; 8100000000; 10700000000; 33544955444;1700000000; 500000000; 0; 5008337010; 1999382659; 50.08337169795114; 19.9938237139712
2514648; 95129394; 2746582; 97656250; -396728515; -305175781; -3600000000; 7700000000; 11000000000; 33494238281;1700000000; 500000000; 100000000; 5008337010; 1999382659; 50.08337169795114; 19.9938237139712
-1611328; 98950195; -2673339; 67138671; -225830078; 653076171; -3500000000; 7800000000; 11100000000; 33583337402;1700000000; 500000000; 100000000; 5008336999; 1999382629; 50.08337169795114; 19.9938237139712
-427246; 94555664; 3454589; -164794921; 531005859; -79345703; -3500000000; 7600000000; 11200000000; 33527267456;1700000000; 500000000; 200000000; 5008336999; 1999382629; 50.08337169795114; 19.9938237139712
-9545898; 100061035; -7531738; 726318359; 292968750; -1599121093; -3500000000; 7500000000; 11200000000; 33498312377;1700000000; 500000000; 200000000; 5008337410; 1999382710; 50.08337169795114; 19.9938237139712
-10522460; 97009277; -22167968; -598144531; -189208984; 1483154296; -3000000000; 7800000000; 11300000000; 33896249389;1700000000; 500000000; 300000000; 5008337410; 1999382710; 50.08337169795114; 19.9938237139712
-24658203; 92785644; -9667968; 6103515; -366210937; 561523437; -3100000000; 7800000000; 11200000000; 33832537841;1700000000; 500000000; 300000000; 5008338190; 1999382629; 50.08337169795114; 19.9938237139712
-2709960; 92224121; -6762695; 244140625; 616455078; 1055908203; -3200000000; 7800000000; 11100000000; 33769378662;1700000000; 500000000; 400000000; 5008338190; 1999382629; 50.08337169795114; 19.9938237139712
-13745117; 90820312; -9875488; -482177734; 531005859; 329589843; -3300000000; 7900000000; 11000000000; 33758383178;1700000000; 500000000; 400000000; 5008338680; 1999382569; 50.08337169795114; 19.9938237139712
-9301757; 95056152; -12194824; 91552734; -1068115234; 207519531; -3600000000; 7700000000; 10900000000; 33494238281;1700000000; 500000000; 500000000; 5008338680; 1999382569; 50.08338048262546; 19.993838407884635
-4907226; 97583007; -5102539; 482177734; -823974609; -939941406; -3600000000; 7700000000; 10900000000; 33494238281;1700000000; 500000000; 500000000; 5008339400; 1999382400; 50.08338048262546; 19.993838407884635
-964355; 108569335; -11206054; 1031494140; 512695312; 219726562; -3500000000; 7500000000; 11100000000; 33498312377;1700000000; 500000000; 600000000; 5008339400; 1999382400; 50.08338048262546; 19.993838407884635
-4138183; 86169433; 317382; 811767578; 1739501953; -2166748046; -3600000000; 7400000000; 11000000000; 33405767822;1700000000; 500000000; 600000000; 5008340279; 1999382360; 50.08338048262546; 19.993838407884635
-5895996; 93371582; -2587890; -1159667968; -292968750; 598144531; -3700000000; 7100000000; 10900000000; 33247479248;1700000000; 500000000; 700000000; 5008340279; 1999382360; 50.083396992605834; 19.99383735335974
-17163085; 96240234; -5371093; -506591796; -1678466796; 469970703; -3700000000; 7200000000; 11000000000; 33280187988;1700000000; 500000000; 700000000; 5008341679; 1999382160; 50.083396992605834; 19.99383735335974
-25744628; 108227539; -12304687; -610351562; -354003906; 1434326171; -3400000000; 7100000000; 11100000000; 33441149902;1700000000; 500000000; 800000000; 5008341679; 1999382160; 50.083406075315466; 19.993838134462415
-2160644; 91955566; -9362792; -1361083984; 689697265; 1702880859; -3500000000; 7200000000; 11100000000; 33375863647;1700000000; 500000000; 800000000; 5008342660; 1999381700; 50.08341699922319; 19.993837083559526
-20642089; 88720703; -9643554; -714111328; -335693359; 543212890; -3500000000; 7100000000; 11100000000; 33375863647;1700000000; 500000000; 900000000; 5008342660; 1999381700; 50.08341699922319; 19.993837083559526
-18200683; 100488281; -13598632; -482177734; -976562500; 262451171; -3500000000; 7100000000; 11100000000; 33375863647;1700000000; 500000000; 900000000; 5008343670; 1999381430; 50.08341699922319; 19.993837083559526
6152343; 96545410; -7519531; 1196289062; -781250000; 915527343; -3600000000; 7400000000; 11000000000; 33405767822;1700000000; 500000000; 1000000000; 5008343670; 1999381430; 50.083431652393514; 19.993828695532056
-9265136; 91259765; -10583496; -128173828; 61035156; -244140625; -3600000000; 7400000000; 11100000000; 33405767822;1700000000; 500000000; 1000000000; 5008344690; 1999381130; 50.083431652393514; 19.993828695532056
-21057128; 95104980; -9863281; 146484375; 170898437; -1739501953; -3500000000; 7300000000; 11100000000; 33438449096;1700000000; 500000000; 1100000000; 5008344690; 1999381130; 50.083431652393514; 19.993828695532056
-21667480; 113098144; -26684570; -122070312; -354003906; -1635742187; -3400000000; 7400000000; 11100000000; 33532315063;1700000000; 500000000; 1100000000; 5008345670; 1999380709; 50.08344784687904; 19.993824782058052
-23278808; 94165039; -16564941; -994873046; 115966796; 994873046; -3300000000; 7600000000; 11100000000; 33652902221;1700000000; 500000000; 1200000000; 5008345670; 1999380709; 50.08344784687904; 19.993824782058052
-28015136; 91198730; -5383300; -91552734; -30517578; -1324462890; -3400000000; 7600000000; 11100000000; 33625051879;1700000000; 500000000; 1200000000; 5008346700; 1999380409; 50.08344784687904; 19.993824782058052
-20117187; 94750976; -2111816; -1110839843; 1367187500; 964355468; -3000000000; 7600000000; 11200000000; 33845898437;1700000000; 500000000; 1300000000; 5008346700; 1999380409; 50.083457840785236; 19.993819673787055
-13122558; 96838378; -17114257; -1812744140; -256347656; 628662109; -3000000000; 7600000000; 11100000000; 33845898437;1700000000; 500000000; 1300000000; 5008347790; 1999380210; 50.083457840785236; 19.993819673787055
-21936035; 94067382; -10681152; -299072265; -207519531; -500488281; -3100000000; 7700000000; 11100000000; 33807040405;1700000000; 500000000; 1400000000; 5008347790; 1999380210; 50.08346845566687; 19.993817913227147
-26110839; 100231933; -15539550; 256347656; -854492187; -921630859; -3000000000; 7700000000; 11200000000; 33871359252;1700000000; 500000000; 1400000000; 5008348729; 1999379960; 50.08346845566687; 19.993817913227147
-12500000; 92492675; -8996582; -30517578; -1538085937; 732421875; -3200000000; 7400000000; 11200000000; 33661477661;1700000000; 500000000; 1500000000; 5008348729; 1999379960; 50.08346845566687; 19.993817913227147
-16491699; 87207031; -7055664; 1025390625; -390625000; -1257324218; -3100000000; 7500000000; 11200000000; 33754309082;1700000000; 500000000; 1500000000; 5008349670; 1999379730; 50.08346845566687; 19.993817913227147
-17175292; 105676269; -16503906; 427246093; 1110839843; 335693359; -3200000000; 7800000000; 11100000000; 33769378662;1700000000; 500000000; 1600000000; 5008349670; 1999379730; 50.083485808115476; 19.993815967773283
-16967773; 98767089; -4492187; 1593017578; -18310546; 805664062; -3200000000; 7700000000; 11100000000; 33743298339;1700000000; 500000000; 1600000000; 5008350720; 1999379619; 50.083485808115476; 19.993815967773283
-13208007; 94311523; -19909667; -2185058593; -415039062; 1422119140; -3100000000; 7800000000; 11100000000; 33769378662;1700000000; 500000000; 1700000000; 5008350720; 1999379619; 50.08349729080755; 19.99380902575174
-8947753; 99829101; -4724121; 311279296; -372314453; -3570556640; -3300000000; 7600000000; 11100000000; 33652902221;1700000000; 500000000; 1700000000; 5008351800; 1999379480; 50.083507611607345; 19.99380344069311
-16381835; 94665527; -23107910; -97656250; -958251953; -280761718; -3000000000; 7600000000; 11200000000; 33845898437;1700000000; 500000000; 1800000000; 5008351800; 1999379480; 50.083507611607345; 19.99380344069311
-29858398; 89379882; -15295410; -91552734; 134277343; -1013183593; -3000000000; 7700000000; 11100000000; 33871359252;1700000000; 500000000; 1800000000; 5008352830; 1999379600; 50.083507611607345; 19.99380344069311
-49291992; 98535156; -3234863; 3338623046; 451660156; 4016113281; -2400000000; 7000000000; 11300000000; 34107537841;1700000000; 500000000; 1900000000; 5008352830; 1999379600; 50.08351792251083; 19.99381153339576
-22778320; 96276855; -10119628; 115966796; 1220703125; 6616210937; -2900000000; 7500000000; 11100000000; 33886013793;1700000000; 500000000; 1900000000; 5008353880; 1999379649; 50.08351792251083; 19.99381153339576
-1037597; 85009765; -1623535; 2197265625; -4870605468; -1495361328; -3600000000; 7800000000; 10900000000; 33522488403;1700000000; 500000000; 2000000000; 5008353880; 1999379649; 50.083527872035624; 19.993811296363553
-12939453; 98193359; -7043457; 207519531; -4510498046; -1928710937; -3400000000; 8000000000; 11000000000; 33697448730;1700000000; 500000000; 2000000000; 5008354880; 1999379739; 50.08353682702673; 19.99381284539949
-12231445; 99548339; -3222656; 24414062; 1458740234; 2331542968; -3000000000; 7800000000; 11100000000; 33896249389;1700000000; 500000000; 2100000000; 5008354880; 1999379739; 50.08353682702673; 19.99381284539949
-622558; 83422851; 427246; 720214843; 628662109; -354003906; -3100000000; 7800000000; 11000000000; 33832537841;1700000000; 500000000; 2100000000; 5008355890; 1999379679; 50.08353682702673; 19.99381284539949
-23205566; 104467773; -11401367; 61035156; 85449218; -500488281; -3100000000; 8000000000; 11000000000; 33881863403;1700000000; 500000000; 2200000000; 5008355890; 1999379679; 50.08353682702673; 19.99381284539949
-6640625; 95495605; 13903808; -152587890; 1831054687; 756835937; -3100000000; 8000000000; 11000000000; 33881863403;1700000000; 500000000; 2200000000; 5008356890; 1999379499; 50.08353682702673; 19.99381284539949
-15820312; 84338378; -6469726; -408935546; -183105468; -396728515; -3200000000; 8000000000; 11100000000; 33819857788;1700000000; 500000000; 2300000000; 5008356890; 1999379499; 50.08355764982479; 19.99381189808989
-22290039; 96386718; -2087402; 1806640625; 897216796; -1782226562; -3100000000; 8000000000; 11000000000; 33881863403;1700000000; 500000000; 2300000000; 5008357900; 1999379170; 50.08355764982479; 19.99381189808989
-329589; 96923828; -29663085; 354003906; -360107421; 1306152343; -3300000000; 8100000000; 10900000000; 33783364868;1700000000; 500000000; 2400000000; 5008357900; 1999379170; 50.083569046466934; 19.993811283848444
-8703613; 93969726; -17932128; 1867675781; -36621093; -1953125000; -3300000000; 8200000000; 10900000000; 33807821655;1700000000; 500000000; 2400000000; 5008358960; 1999379219; 50.083569046466934; 19.993811283848444
-12634277; 110974121; -7958984; -329589843; -372314453; 854492187; -3100000000; 8100000000; 10900000000; 33905734252;1700000000; 500000000; 2500000000; 5008358960; 1999379219; 50.08358060866085; 19.993810328678524
-13391113; 94262695; -10351562; -665283203; 756835937; 1293945312; -3200000000; 8100000000; 11000000000; 33844290161;1700000000; 500000000; 2500000000; 5008359979; 1999379170; 50.08358060866085; 19.993810328678524
-7116699; 88183593; -16894531; -85449218; -714111328; 1544189453; -3300000000; 8100000000; 10900000000; 33783364868;1700000000; 500000000; 2600000000; 5008359979; 1999379170; 50.08359042831564; 19.993804922764227
-19189453; 96862792; -13500976; -482177734; -1086425781; 195312500; -3300000000; 8200000000; 10800000000; 33807821655;1700000000; 500000000; 2600000000; 5008360889; 1999379150; 50.08359951891554; 19.993799505041068
7495117; 105468750; -744628; 134277343; 1599121093; 1214599609; -3300000000; 8100000000; 10900000000; 33783364868;1700000000; 500000000; 2700000000; 5008360889; 1999379150; 50.08359951891554; 19.993799505041068
3161621; 99414062; -19335937; 42724609; -115966796; 1483154296; -3300000000; 8100000000; 10900000000; 33783364868;1700000000; 500000000; 2700000000; 5008361720; 1999379069; 50.08359951891554; 19.993799505041068
-10559082; 95471191; -16162109; 262451171; 939941406; -1110839843; -3300000000; 8100000000; 10900000000; 33783364868;1700000000; 500000000; 2800000000; 5008361720; 1999379069; 50.08360869416404; 19.993803316453075
-22485351; 94616699; -11853027; 109863281; 909423828; -866699218; -3300000000; 8000000000; 10900000000; 33758383178;1700000000; 500000000; 2800000000; 5008362190; 1999379189; 50.08360869416404; 19.993803316453075
-9484863; 102905273; -19812011; 1184082031; -1983642578; 378417968; -3300000000; 8200000000; 10800000000; 33807821655;1700000000; 500000000; 2900000000; 5008362190; 1999379189; 50.083620852729936; 19.993803250830965
-4211425; 99621582; -22961425; 256347656; -2862548828; 543212890; -3200000000; 8300000000; 10900000000; 33891625976;1700000000; 500000000; 2900000000; 5008362400; 1999379540; 50.083620852729936; 19.993803250830965
4467773; 96069335; -4919433; 579833984; -3271484375; -1037597656; -2100000000; 8500000000; 10900000000; 34612243652;1700000000; 500000000; 3000000000; 5008362400; 1999379540; 50.083620852729936; 19.993803250830965
-6372070; 90356445; -10217285; 134277343; -1593017578; -805664062; -1800000000; 8400000000; 10800000000; 34790524291;1700000000; 500000000; 3000000000; 5008362590; 1999379649; 50.083620852729936; 19.993803250830965
-207519; 97888183; -14526367; -750732421; -1049804687; 1519775390; -1900000000; 8500000000; 10700000000; 34739984130;1700000000; 500000000; 3100000000; 5008362590; 1999379649; 50.083620852729936; 19.993803250830965
-9167480; 98217773; -20886230; -24414062; -1440429687; -311279296; -1900000000; 8600000000; 10700000000; 34804342651;1700000000; 500000000; 3100000000; 5008362450; 1999379960; 50.083620852729936; 19.993803250830965
-5163574; 93041992; -9448242; 36621093; -1159667968; 732421875; -1300000000; 8400000000; 10600000000; 35120257568;1700000000; 500000000; 3200000000; 5008362450; 1999379960; 50.083620852729936; 19.993803250830965
-14538574; 95983886; -9680175; 122070312; -531005859; -18310546; -1300000000; 8400000000; 10700000000; 35120257568;1700000000; 500000000; 3200000000; 5008362390; 1999381009; 50.083620852729936; 19.993803250830965
-19519042; 99401855; -12780761; 54931640; -6103515; 805664062; -1000000000; 7900000000; 10600000000; 35278573608;1700000000; 500000000; 3300000000; 5008362390; 1999381009; 50.083620852729936; 19.993803250830965
-8813476; 110314941; -29980468; 207519531; -30517578; -12207031; -900000000; 8000000000; 10600000000; 35358120727;1700000000; 500000000; 3300000000; 5008362330; 1999382479; 50.083620852729936; 19.993803250830965
-9716796; 85900878; -8581542; -1025390625; 85449218; 329589843; -1000000000; 7700000000; 10700000000; 35260040283;1700000000; 500000000; 3400000000; 5008362330; 1999382479; 50.083620852729936; 19.993803250830965
-4211425; 89245605; -10290527; 164794921; -201416015; -36621093; -1100000000; 7700000000; 10700000000; 35186990356;1700000000; 500000000; 3400000000; 5008362200; 1999383940; 50.083620852729936; 19.993803250830965
-20959472; 109594726; -12341308; 329589843; -457763671; -2081298828; -1000000000; 7600000000; 10700000000; 35250415039;1700000000; 500000000; 3500000000; 5008362200; 1999383940; 50.08361979401302; 19.993827065631738
-11035156; 105627441; -8203125; -1495361328; -164794921; 1562500000; -900000000; 7500000000; 10600000000; 35315722656;1700000000; 500000000; 3500000000; 5008362180; 1999385519; 50.08362088303628; 19.993843368630213
-14025878; 85742187; -17626953; 0; -1776123046; 231933593; -700000000; 7700000000; 10500000000; 35406851196;1700000000; 500000000; 3600000000; 5008362180; 1999385519; 50.08362088303628; 19.993843368630213
-13061523; 85681152; -5676269; -885009765; -726318359; 567626953; -800000000; 7600000000; 10700000000; 35399102783;1700000000; 500000000; 3600000000; 5008361980; 1999386999; 50.08362088303628; 19.993843368630213
-10607910; 100537109; -17687988; -317382812; 1409912109; 2752685546; -900000000; 7400000000; 10700000000; 35306564331;1700000000; 500000000; 3700000000; 5008361980; 1999386999; 50.08362088303628; 19.993843368630213
20068359; 101538085; -24609375; -67138671; -616455078; 2142333984; -1200000000; 7500000000; 10900000000; 35090972900;1700000000; 500000000; 3700000000; 5008361679; 1999388579; 50.08362088303628; 19.993843368630213
-9899902; 87744140; -9484863; 793457031; 42724609; -91552734; -900000000; 7600000000; 10700000000; 35324642944;1700000000; 500000000; 3800000000; 5008361679; 1999388579; 50.08361758280477; 19.99387038849791
-14697265; 106286621; -16088867; 189208984; -878906250; -262451171; -900000000; 7800000000; 10600000000; 35406851196;1700000000; 500000000; 3800000000; 5008361480; 1999390090; 50.08361758280477; 19.99387038849791
-7299804; 108837890; -21447753; -67138671; -42724609; 54931640; -800000000; 7500000000; 10600000000; 35391146850;1700000000; 500000000; 3900000000; 5008361480; 1999390090; 50.08361758280477; 19.99387038849791
-9008789; 87951660; -16442871; -250244140; 555419921; 30517578; -800000000; 7500000000; 10600000000; 35391146850;1700000000; 500000000; 3900000000; 5008361290; 1999391719; 50.08361758280477; 19.99387038849791
-4357910; 98510742; -11926269; -634765625; 720214843; -2081298828; -1000000000; 7700000000; 10700000000; 35260040283;1700000000; 500000000; 4000000000; 5008361290; 1999391719; 50.08361366427827; 19.993891634849106
-5297851; 108850097; -19055175; -1416015625; 1495361328; -1049804687; -900000000; 7600000000; 10700000000; 35324642944;1700000000; 500000000; 4000000000; 5008361130; 1999393340; 50.08361366427827; 19.993891634849106
-5126953; 91333007; -17272949; 634765625; -1055908203; 73242187; -1000000000; 7600000000; 10700000000; 35250415039;1700000000; 500000000; 4100000000; 5008361130; 1999393340; 50.083610693774745; 19.99390670058974
-3735351; 92541503; -4528808; -469970703; -506591796; 1104736328; -1100000000; 7600000000; 10800000000; 35176440429;1700000000; 500000000; 4100000000; 5008360940; 1999394969; 50.08361010277999; 19.99392574573642
-11877441; 104663085; -18627929; -500488281; -878906250; -500488281; -900000000; 7800000000; 10700000000; 35341802978;1700000000; 500000000; 4200000000; 5008360940; 1999394969; 50.08361010277999; 19.99392574573642
-4040527; 91992187; -32482910; 73242187; -1458740234; -531005859; -900000000; 7800000000; 10700000000; 35350064086;1700000000; 500000000; 4200000000; 5008360640; 1999396570; 50.08361010277999; 19.99392574573642
-23645019; 84216308; -17602539; 1116943359; -878906250; -1708984375; -800000000; 7800000000; 10500000000; 35414398193;1700000000; 500000000; 4300000000; 5008360640; 1999396570; 50.08361254317136; 19.99394240057274
-10083007; 95739746; -17761230; 488281250; -1605224609; 152587890; -800000000; 7900000000; 10500000000; 35421759033;1700000000; 500000000; 4300000000; 5008360390; 1999397949; 50.08361254317136; 19.99394240057274
2233886; 100927734; -26953125; 1019287109; -244140625; 54931640; -1000000000; 7800000000; 10700000000; 35269424438;1700000000; 500000000; 4400000000; 5008360390; 1999397949; 50.08361254317136; 19.99394240057274
2136230; 81298828; -9973144; 225830078; 683593750; 280761718; -1200000000; 7900000000; 10800000000; 35136285400;1700000000; 500000000; 4400000000; 5008360300; 1999399540; 50.083607707485285; 19.9939665466557
-23596191; 99951171; -12573242; -152587890; 1531982421; -640869140; -1000000000; 7600000000; 10700000000; 35250415039;1700000000; 500000000; 4500000000; 5008360300; 1999399540; 50.083607707485285; 19.9939665466557
-14160156; 109252929; -16528320; -2026367187; 1000976562; 1184082031; -1000000000; 7700000000; 10700000000; 35186990356;1700000000; 500000000; 4500000000; 5008360200; 1999401090; 50.083607707485285; 19.9939665466557
-17211914; 94372558; -22546386; -701904296; -415039062; -451660156; -800000000; 7600000000; 10700000000; 35399102783;1700000000; 500000000; 4600000000; 5008360200; 1999401090; 50.083607317083086; 19.993980856917222
-9973144; 84814453; -2099609; -732421875; -598144531; -1123046875; -900000000; 7400000000; 10700000000; 35306564331;1700000000; 500000000; 4600000000; 5008359990; 1999402650; 50.083607317083086; 19.993980856917222
-11083984; 114733886; -23144531; 1116943359; -2258300781; -2172851562; -600000000; 7400000000; 10500000000; 35536450195;1700000000; 500000000; 4700000000; 5008359990; 1999402650; 50.083606772965055; 19.99399964386407
-3222656; 97265625; -13342285; 1873779296; -769042968; -146484375; -700000000; 7300000000; 10600000000; 35452264404;1700000000; 500000000; 4700000000; 5008359739; 1999404310; 50.08360160986112; 19.994012119655082
-17272949; 86560058; -13122558; 860595703; 805664062; -177001953; -900000000; 7600000000; 10500000000; 35324642944;1700000000; 500000000; 4800000000; 5008359739; 1999404310; 50.08360160986112; 19.994012119655082
-20141601; 98620605; -15161132; 372314453; -97656250; 1031494140; -800000000; 7700000000; 10500000000; 35406851196;1700000000; 500000000; 4800000000; 5008359560; 1999405890; 50.08360160986112; 19.994012119655082
1660156; 99218750; -21362304; 836181640; -524902343; -268554687; -900000000; 7700000000; 10600000000; 35333334350;1700000000; 500000000; 4900000000; 5008359560; 1999405890; 50.083606545649744; 19.994026737250937
-5700683; 83032226; -11218261; 67138671; 219726562; -1031494140; -1000000000; 7600000000; 10700000000; 35250415039;1700000000; 500000000; 4900000000; 5008359450; 1999407369; 50.083606545649744; 19.994026737250937
-27026367; 108422851; -23864746; -274658203; 152587890; -1184082031; -900000000; 7800000000; 10500000000; 35341802978;1700000000; 500000000; 5000000000; 5008359450; 1999407369; 50.08360278613133; 19.994046446735105
-12463378; 107873535; -35058593; -836181640; -378417968; 146484375; -800000000; 7700000000; 10500000000; 35406851196;1700000000; 500000000; 5000000000; 5008359290; 1999408979; 50.08360045245524; 19.994063090762513
-5212402; 89453125; -20092773; 708007812; -24414062; -292968750; -900000000; 7600000000; 10700000000; 35324642944;1700000000; 500000000; 5100000000; 5008359290; 1999408979; 50.08360045245524; 19.994063090762513
-18261718; 91442871; -14611816; 305175781; -372314453; -1757812500; -800000000; 7700000000; 10600000000; 35406851196;1700000000; 500000000; 5100000000; 5008359110; 1999410520; 50.08360045245524; 19.994063090762513
964355; 103125000; -4711914; 1837158203; -506591796; 1928710937; -1000000000; 7400000000; 10700000000; 35230395507;1700000000; 500000000; 5200000000; 5008359110; 1999410520; 50.08360045245524; 19.994063090762513
-122070; 104724121; -30883789; 115966796; -2172851562; -878906250; -900000000; 7500000000; 10600000000; 35315722656;1700000000; 500000000; 5200000000; 5008358920; 1999412200; 50.08360045245524; 19.994063090762513
-15075683; 96362304; 756835; -2276611328; 1074218750; 1068115234; -1300000000; 7400000000; 10900000000; 35003619384;1700000000; 500000000; 5300000000; 5008358920; 1999412200; 50.083600151041004; 19.994091661603054
13208007; 107250976; 12988281; 3485107421; -1562500000; -2423095703; -1400000000; 7300000000; 11000000000; 35003619384;1700000000; 500000000; 5300000000; 5008358680; 1999413810; 50.083596231863076; 19.994109003063542
-16809082; 77429199; -12475585; -2789306640; 1489257812; -1342773437; -1100000000; 7900000000; 10700000000; 35207308959;1700000000; 500000000; 5400000000; 5008358680; 1999413810; 50.083596231863076; 19.994109003063542
-17797851; 74572753; -2404785; 878906250; 396728515; -1434326171; -1100000000; 7700000000; 10700000000; 35186990356;1700000000; 500000000; 5400000000; 5008358380; 1999415270; 50.083596231863076; 19.994109003063542
-6506347; 111950683; -17602539; -756835937; 604248046; 1104736328; -900000000; 7800000000; 10500000000; 35341802978;1700000000; 500000000; 5500000000; 5008358380; 1999415270; 50.08359379005149; 19.994125299856005
16882324; 83789062; -1928710; -2520751953; -18310546; 2996826171; -1000000000; 7700000000; 10700000000; 35260040283;1700000000; 500000000; 5500000000; 5008358170; 1999416889; 50.08359379005149; 19.994125299856005
-21301269; 95935058; -14831542; 512695312; 1196289062; -927734375; -900000000; 7700000000; 10700000000; 35333334350;1700000000; 500000000; 5600000000; 5008358170; 1999416889; 50.083591332550554; 19.99414208415886
-4113769; 119030761; -14953613; 1098632812; 323486328; -579833984; -1000000000; 7800000000; 10700000000; 35333334350;1700000000; 500000000; 5600000000; 5008358100; 1999418280; 50.083590662623; 19.994157163868906
-3991699; 72106933; -4455566; -3344726562; -207519531; 2142333984; -1100000000; 7500000000; 10800000000; 35165609741;1700000000; 500000000; 5700000000; 5008358100; 1999418280; 50.083590662623; 19.994157163868906
-4980468; 98022460; -6274414; 2484130859; 878906250; -915527343; -1200000000; 7500000000; 10900000000; 35090972900;1700000000; 500000000; 5700000000; 5008357920; 1999419330; 50.083590662623; 19.994157163868906
-20288085; 92883300; -378417; -146484375; -1123046875; -775146484; -1200000000; 7700000000; 10800000000; 35114202880;1700000000; 500000000; 5800000000; 5008357920; 1999419330; 50.0835875081572; 19.994170453554815
-22827148; 98339843; 4064941; 1477050781; -1202392578; -134277343; -1100000000; 7700000000; 10800000000; 35186990356;1700000000; 500000000; 5800000000; 5008357830; 1999420389; 50.0835875081572; 19.994170453554815
-3173828; 104235839; -2795410; 1623535156; 213623046; 555419921; -1100000000; 7800000000; 10800000000; 35197274780;1700000000; 500000000; 5900000000; 5008357830; 1999420389; 50.0835875081572; 19.994170453554815
5541992; 97387695; -20983886; -1928710937; -653076171; -1721191406; -1000000000; 7800000000; 10700000000; 35269424438;1700000000; 500000000; 5900000000; 5008357800; 1999421569; 50.08358351905983; 19.994190852509387
-9289550; 84655761; -9497070; 1379394531; -1074218750; 299072265; -800000000; 7400000000; 10600000000; 35382983398;1700000000; 600000000; 0; 5008357800; 1999421569; 50.08358351905983; 19.994190852509387
-12854003; 89404296; -8947753; 775146484; 488281250; 1141357421; -700000000; 7500000000; 10600000000; 35473760986;1700000000; 600000000; 0; 5008357620; 1999422019; 50.08358351905983; 19.994190852509387
305175; 93725585; -30541992; 2178955078; -10626220703; 2008056640; -600000000; 6800000000; 10500000000; 35495758056;1700000000; 600000000; 100000000; 5008357620; 1999422019; 50.08358351905983; 19.994190852509387
8239746; 98742675; -25354003; 2075195312; -11267089843; 1678466796; -600000000; 6500000000; 10500000000; 35472610473;1700000000; 600000000; 100000000; 5008357549; 1999422070; 50.08358351905983; 19.994190852509387
-23486328; 97595214; -7763671; 1019287109; -360107421; -341796875; -1600000000; 5300000000; 10700000000; 34320162963;1700000000; 600000000; 200000000; 5008357549; 1999422070; 50.08357967012914; 19.99420492976935
-24865722; 95849609; -8215332; -1391601562; -488281250; 85449218; -1600000000; 5300000000; 10700000000; 34320162963;1700000000; 600000000; 200000000; 5008356870; 1999421640; 50.08357967012914; 19.99420492976935
-14611816; 126965332; -16149902; 1116943359; -2008056640; -2520751953; -1500000000; 5300000000; 10500000000; 34419750976;1700000000; 600000000; 300000000; 5008356870; 1999421640; 50.08357967012914; 19.99420492976935
-23974609; 91760253; -9753417; -549316406; -512695312; 2600097656; -1500000000; 5200000000; 10500000000; 34390914916;1700000000; 600000000; 300000000; 5008355980; 1999421299; 50.08357967012914; 19.99420492976935
-22717285; 82409667; -5212402; -494384765; 390625000; 189208984; -1500000000; 5200000000; 10600000000; 34390914916;1700000000; 600000000; 400000000; 5008355980; 1999421299; 50.08357110298031; 19.994199791335063
-12048339; 91430664; -2502441; 561523437; -408935546; -177001953; -1500000000; 5100000000; 10500000000; 34361047363;1700000000; 600000000; 400000000; 5008355020; 1999420980; 50.08357110298031; 19.994199791335063
256347; 91857910; -9887695; 146484375; -732421875; 897216796; -1200000000; 5100000000; 10400000000; 34675946044;1700000000; 600000000; 500000000; 5008355020; 1999420980; 50.083561264774175; 19.994196170228296
-5615234; 89807128; -6933593; -274658203; 390625000; -231933593; -1300000000; 5100000000; 10400000000; 34569973754;1700000000; 600000000; 500000000; 5008354070; 1999420749; 50.083549957473025; 19.99419274340288
-13061523; 103503417; -3833007; -701904296; 909423828; -1348876953; -1800000000; 5100000000; 10700000000; 34055993652;1700000000; 600000000; 600000000; 5008354070; 1999420749; 50.083549957473025; 19.99419274340288
-10229492; 108862304; 5151367; -476074218; -189208984; -708007812; -1700000000; 5100000000; 10500000000; 34156503295;1700000000; 600000000; 600000000; 5008353080; 1999420539; 50.083549957473025; 19.99419274340288
-10742187; 91491699; -9545898; 646972656; -140380859; 952148437; -1600000000; 5300000000; 10700000000; 34320162963;1700000000; 600000000; 700000000; 5008353080; 1999420539; 50.083540133671846; 19.994190162467806
-8825683; 99438476; -5993652; -225830078; 1214599609; 0; -1600000000; 5400000000; 10700000000; 34349563598;1700000000; 600000000; 700000000; 5008352150; 1999420240; 50.083540133671846; 19.994190162467806
-6542968; 110144042; -20471191; 4351806640; -73242187; 195312500; -1500000000; 5200000000; 10500000000; 34390914916;1700000000; 600000000; 800000000; 5008352150; 1999420240; 50.083540133671846; 19.994190162467806
-20776367; 86901855; -26391601; -549316406; -1751708984; -109863281; -1400000000; 5400000000; 10700000000; 34520321655;1700000000; 600000000; 800000000; 5008351110; 1999419800; 50.083523409861215; 19.99418846951379
-10693359; 102148437; -11169433; -1312255859; -36621093; 891113281; -1400000000; 5300000000; 10600000000; 34520321655;1700000000; 600000000; 900000000; 5008351110; 1999419800; 50.083523409861215; 19.99418846951379
-32812500; 114843750; -27697753; -1751708984; -48828125; -1031494140; -1400000000; 5300000000; 10500000000; 34520321655;1700000000; 600000000; 900000000; 5008350050; 1999419490; 50.083523409861215; 19.99418846951379
-5480957; 80883789; -4699707; 866699218; -714111328; -482177734; -1300000000; 5200000000; 10500000000; 34596374511;1700000000; 600000000; 1000000000; 5008350050; 1999419490; 50.08351363596127; 19.99418457110567
-15734863; 99987792; -5383300; 958251953; -946044921; 1092529296; -1400000000; 5300000000; 10500000000; 34520321655;1700000000; 600000000; 1000000000; 5008349099; 1999419240; 50.08351363596127; 19.99418457110567
-2136230; 115368652; -11560058; 3076171875; 115966796; -299072265; -1600000000; 5300000000; 10700000000; 34320162963;1700000000; 600000000; 1100000000; 5008349099; 1999419240; 50.08350364016251; 19.994181680602683
1232910; 93164062; -12585449; -1788330078; -207519531; 2593994140; -1500000000; 5200000000; 10700000000; 34289727783;1700000000; 600000000; 1100000000; 5008348059; 1999419010; 50.08350364016251; 19.994181680602683
-17395019; 89501953; -1000976; -1116943359; 1477050781; 604248046; -1600000000; 5300000000; 10600000000; 34320162963;1700000000; 600000000; 1200000000; 5008348059; 1999419010; 50.08350364016251; 19.994181680602683
-8447265; 104211425; -9216308; 305175781; 1873779296; -793457031; -1600000000; 5300000000; 10700000000; 34320162963;1700000000; 600000000; 1200000000; 5008347070; 1999418700; 50.08350364016251; 19.994181680602683
-11450195; 86816406; -23156738; -244140625; -512695312; 561523437; -1200000000; 5400000000; 10700000000; 34747122192;1700000000; 600000000; 1300000000; 5008347070; 1999418700; 50.0834864373913; 19.99418226714684
-16845703; 85241699; -10803222; -720214843; -18310546; 463867187; -1400000000; 5400000000; 10600000000; 34546554565;1700000000; 600000000; 1300000000; 5008346080; 1999418270; 50.0834864373913; 19.99418226714684
830078; 115380859; -15905761; 836181640; 256347656; -2246093750; -1500000000; 5400000000; 10700000000; 34447586059;1700000000; 600000000; 1400000000; 5008346080; 1999418270; 50.083474144508266; 19.994180793684688
-3381347; 92187500; -11474609; -1269531250; -128173828; 3076171875; -1400000000; 5400000000; 10700000000; 34546554565;1700000000; 600000000; 1400000000; 5008344959; 1999417859; 50.083464848207505; 19.994180558281386
-3857421; 83129882; -12683105; -787353515; -500488281; -848388671; -1500000000; 5400000000; 10700000000; 34447586059;1700000000; 600000000; 1500000000; 5008344959; 1999417859; 50.083464848207505; 19.994180558281386
-26049804; 87390136; -5969238; -1147460937; -286865234; -439453125; -1400000000; 5400000000; 10700000000; 34546554565;1700000000; 600000000; 1500000000; 5008343960; 1999417600; 50.083464848207505; 19.994180558281386
-10034179; 108105468; -14257812; -1257324218; 177001953; 238037109; -1300000000; 5500000000; 10700000000; 34670144653;1700000000; 600000000; 1600000000; 5008343960; 1999417600; 50.08345513839046; 19.994170002815117
6982421; 85656738; -16845703; -2258300781; 54931640; 4010009765; -1300000000; 5500000000; 10700000000; 34670144653;1700000000; 600000000; 1600000000; 5008342800; 1999417420; 50.08345513839046; 19.994170002815117
-19116210; 85412597; -15344238; -549316406; 543212890; 390625000; -1200000000; 5700000000; 10700000000; 34811132812;1700000000; 600000000; 1700000000; 5008342800; 1999417420; 50.0834442592861; 19.99417057119747
-30004882; 100585937; -20385742; -164794921; 354003906; 396728515; -1200000000; 5700000000; 10700000000; 34811132812;1700000000; 600000000; 1700000000; 5008341690; 1999417120; 50.08343492620772; 19.994173008898365
1770019; 93566894; -34863281; 537109375; -3729248046; -921630859; -1100000000; 5700000000; 10700000000; 34907717895;1700000000; 600000000; 1800000000; 5008341690; 1999417120; 50.08343492620772; 19.994173008898365
2563476; 89453125; -13659667; 109863281; -1348876953; 1855468750; -1300000000; 5700000000; 10700000000; 34715228271;1700000000; 600000000; 1800000000; 5008340579; 1999416769; 50.08343492620772; 19.994173008898365
-9631347; 110070800; -6091308; 1959228515; -67138671; -585937500; -1300000000; 5400000000; 10500000000; 34646414184;1700000000; 600000000; 1900000000; 5008340579; 1999416769; 50.08342373731652; 19.994168789631686
-1672363; 105932617; -26538085; 1751708984; -616455078; -1702880859; -1300000000; 5400000000; 10500000000; 34646414184;1700000000; 600000000; 1900000000; 5008339520; 1999416489; 50.08342373731652; 19.994168789631686
-28979492; 92102050; -19433593; -1257324218; -634765625; 909423828; -1400000000; 5300000000; 10600000000; 34520321655;1700000000; 600000000; 2000000000; 5008339520; 1999416489; 50.08341423566404; 19.994162288928447
-29138183; 91906738; -10791015; 1776123046; -1019287109; -2862548828; -1500000000; 5300000000; 10500000000; 34419750976;1700000000; 600000000; 2000000000; 5008338430; 1999416290; 50.08341423566404; 19.994162288928447
-5383300; 121606445; -12182617; -85449218; 2258300781; 3533935546; -1300000000; 5200000000; 10500000000; 34596374511;1700000000; 600000000; 2100000000; 5008338430; 1999416290; 50.08341423566404; 19.994162288928447
-3662109; 99047851; -7910156; -2807617187; 1391601562; -695800781; -1400000000; 5400000000; 10600000000; 34546554565;1700000000; 600000000; 2100000000; 5008337419; 1999415970; 50.08341423566404; 19.994162288928447
-17883300; 90429687; -6518554; -543212890; 177001953; -500488281; -1600000000; 5000000000; 10500000000; 34225537109;1700000000; 600000000; 2200000000; 5008337419; 1999415970; 50.08339370983448; 19.994156651691032
-10778808; 99328613; -61035; -164794921; 97656250; -280761718; -1500000000; 4900000000; 10400000000; 34297949218;1700000000; 600000000; 2200000000; 5008336400; 1999415879; 50.08339370983448; 19.994156651691032
-7360839; 95092773; -7275390; -2362060546; 299072265; -299072265; -1600000000; 5100000000; 10500000000; 34258203125;1700000000; 600000000; 2300000000; 5008336400; 1999415879; 50.08337973743192; 19.99414559113788
-6726074; 85693359; -8764648; -543212890; 219726562; -543212890; -1600000000; 5100000000; 10500000000; 34258203125;1700000000; 600000000; 2300000000; 5008335520; 1999415590; 50.083369704707756; 19.994150762416922
-19079589; 100292968; -5053710; -1153564453; -482177734; -73242187; -1400000000; 5300000000; 10600000000; 34520321655;1700000000; 600000000; 2400000000; 5008335520; 1999415590; 50.083369704707756; 19.994150762416922
-6799316; 114172363; -8911132; 1647949218; 927734375; 567626953; -1300000000; 5300000000; 10500000000; 34621841430;1700000000; 600000000; 2400000000; 5008334580; 1999415200; 50.083369704707756; 19.994150762416922
-19250488; 93627929; 134277; 500488281; 1129150390; 183105468; -1400000000; 5300000000; 10500000000; 34520321655;1700000000; 600000000; 2500000000; 5008334580; 1999415200; 50.083358557279794; 19.994155666733835
-9924316; 87988281; -6359863; -2215576171; -360107421; -598144531; -1400000000; 5400000000; 10700000000; 34546554565;1700000000; 600000000; 2500000000; 5008333760; 1999414950; 50.083358557279794; 19.994155666733835
-15588378; 101977539; 4541015; -1910400390; 2075195312; -2081298828; -1300000000; 5000000000; 10300000000; 34542578125;1700000000; 600000000; 2600000000; 5008333760; 1999414950; 50.083358557279794; 19.994155666733835
-3271484; 109216308; -33642578; -2325439453; 3186035156; 3021240234; -1200000000; 5100000000; 10400000000; 34675946044;1700000000; 600000000; 2600000000; 5008332960; 1999414800; 50.08334684863452; 19.99415798700878
-17797851; 79577636; -8300781; 18310546; 781250000; 555419921; -1000000000; 5200000000; 10300000000; 34911444091;1700000000; 600000000; 2700000000; 5008332960; 1999414800; 50.08334684863452; 19.99415798700878
-14855957; 94970703; -8520507; -408935546; 335693359; 427246093; -1100000000; 5200000000; 10300000000; 34805581665;1700000000; 600000000; 2700000000; 5008332140; 1999414680; 50.08334684863452; 19.99415798700878
-22534179; 98205566; 598144; -744628906; -2105712890; -1025390625; -1000000000; 5200000000; 10300000000; 34911444091;1700000000; 600000000; 2800000000; 5008332140; 1999414680; 50.08334684863452; 19.99415798700878
-18261718; 99487304; 5676269; 1135253906; -1824951171; -1416015625; -1000000000; 5000000000; 10100000000; 34869006347;1700000000; 600000000; 2800000000; 5008331390; 1999414609; 50.08334684863452; 19.99415798700878
0; 91418457; -18054199; -494384765; -1654052734; -2246093750; -1300000000; 4800000000; 10200000000; 34484594726;1700000000; 600000000; 2900000000; 5008331390; 1999414609; 50.08333170974401; 19.994152271983737
-34509277; 69177246; -40576171; 2502441406; -6103515625; 1550292968; -1300000000; 4700000000; 10200000000; 34453878784;1700000000; 600000000; 2900000000; 5008331640; 1999413860; 50.08333170974401; 19.994152271983737
-6408691; 97412109; 9240722; 2008056640; -3155517578; -640869140; -3500000000; 5600000000; 10800000000; 32799462890;1700000000; 600000000; 3000000000; 5008331640; 1999413860; 50.08333170974401; 19.994152271983737
-15502929; 94714355; 3613281; -531005859; -1629638671; 91552734; -3500000000; 5700000000; 10800000000; 32844857788;1700000000; 600000000; 3000000000; 5008331740; 1999412730; 50.08333170974401; 19.994152271983737
-18200683; 91137695; 4040527; -67138671; -213623046; -921630859; -3400000000; 5400000000; 10700000000; 32780429077;1700000000; 600000000; 3100000000; 5008331740; 1999412730; 50.08333170974401; 19.994152271983737
-23132324; 98168945; -427246; -1086425781; -18310546; -604248046; -3300000000; 5400000000; 10800000000; 32857043457;1700000000; 600000000; 3100000000; 5008331820; 1999411550; 50.08333170974401; 19.994152271983737
-14941406; 118115234; -5859375; -927734375; -207519531; -537109375; -3400000000; 5300000000; 10600000000; 32731942749;1700000000; 600000000; 3200000000; 5008331820; 1999411550; 50.08333170974401; 19.994152271983737
-30126953; 94714355; 10266113; 1171875000; -750732421; -500488281; -3300000000; 5300000000; 10600000000; 32809188842;1700000000; 600000000; 3200000000; 5008331889; 1999410079; 50.08332563095504; 19.994129871218895
-4785156; 94604492; -9533691; -2520751953; -256347656; 1458740234; -3400000000; 5700000000; 10800000000; 32918429565;1700000000; 600000000; 3300000000; 5008331889; 1999410079; 50.08332563095504; 19.994129871218895
-23413085; 99328613; 12121582; 128173828; 549316406; -738525390; -3400000000; 5500000000; 10700000000; 32827642822;1700000000; 600000000; 3300000000; 5008332100; 1999408769; 50.08332563095504; 19.994129871218895
-10058593; 121130371; 3320312; -1977539062; -1245117187; 494384765; -3500000000; 5400000000; 10700000000; 32705078125;1700000000; 600000000; 3400000000; 5008332100; 1999408769; 50.08332744932673; 19.99411432551492
-16699218; 96545410; -9143066; 524902343; 97656250; 604248046; -3500000000; 5400000000; 10600000000; 32705078125;1700000000; 600000000; 3400000000; 5008332189; 1999407309; 50.08332744932673; 19.99411432551492
-15014648; 89331054; -11340332; 3851318359; 726318359; -1354980468; -3500000000; 5500000000; 10700000000; 32873629760;1700000000; 600000000; 3500000000; 5008332189; 1999407309; 50.083328755861984; 19.99409659164367
-15209960; 89404296; -15368652; 244140625; -512695312; -24414062; -3400000000; 5600000000; 10800000000; 32873629760;1700000000; 600000000; 3500000000; 5008332260; 1999405849; 50.083328755861984; 19.99409659164367
-20947265; 107446289; -3857421; -2801513671; 97656250; -30517578; -3400000000; 5500000000; 10800000000; 32827642822;1700000000; 600000000; 3600000000; 5008332260; 1999405849; 50.083328755861984; 19.99409659164367
-2062988; 111901855; -15649414; 2795410156; 3143310546; 1971435546; -3400000000; 5600000000; 10700000000; 32873629760;1700000000; 600000000; 3600000000; 5008332320; 1999404230; 50.083328755861984; 19.99409659164367
-18432617; 87683105; 1989746; -2307128906; -1147460937; -244140625; -3300000000; 5600000000; 10800000000; 32948977661;1700000000; 600000000; 3700000000; 5008332320; 1999404230; 50.08332964215767; 19.994072713551468
-25634765; 96850585; 4589843; -744628906; 524902343; -659179687; -3300000000; 5600000000; 10700000000; 32873629760;1700000000; 600000000; 3700000000; 5008332320; 1999402969; 50.08332964215767; 19.994072713551468
-2697753; 92211914; -19677734; -2099609375; -976562500; 384521484; -3400000000; 5400000000; 10700000000; 32780429077;1700000000; 600000000; 3800000000; 5008332320; 1999402969; 50.08332964215767; 19.994072713551468
-7580566; 86132812; -13208007; -1525878906; -1867675781; 805664062; -3500000000; 5400000000; 10600000000; 32705078125;1700000000; 600000000; 3800000000; 5008332450; 1999401580; 50.08333195429146; 19.99404325553373
-23229980; 87512207; 5432128; -299072265; -158691406; -207519531; -3500000000; 5400000000; 10600000000; 32705078125;1700000000; 600000000; 3900000000; 5008332450; 1999401580; 50.08333195429146; 19.99404325553373
-8032226; 108984375; -5822753; -537109375; 6103515; -48828125; -3400000000; 5500000000; 10700000000; 32827642822;1700000000; 600000000; 3900000000; 5008332619; 1999400199; 50.08333195429146; 19.99404325553373
-4919433; 83044433; -15234375; 1013183593; -347900390; -305175781; -3600000000; 5500000000; 10600000000; 32679342651;1700000000; 600000000; 4000000000; 5008332619; 1999400199; 50.08333195429146; 19.99404325553373
-14990234; 92468261; -10107421; 1452636718; 1214599609; -433349609; -3600000000; 5400000000; 10700000000; 32630993652;1700000000; 600000000; 4000000000; 5008332660; 1999398559; 50.08333195429146; 19.99404325553373
-13134765; 112219238; 3613281; -1910400390; 1159667968; 164794921; -3400000000; 5500000000; 10800000000; 32827642822;1700000000; 600000000; 4100000000; 5008332660; 1999398559; 50.08333140234568; 19.99401821346676
-34558105; 100683593; -9484863; 1495361328; 152587890; 2264404296; -3300000000; 5500000000; 10800000000; 32903625488;1700000000; 600000000; 4100000000; 5008332820; 1999397009; 50.08333425953852; 19.994000429788578
-6457519; 82495117; -20861816; -592041015; 1458740234; 372314453; -3500000000; 5600000000; 10800000000; 32873629760;1700000000; 600000000; 4200000000; 5008332820; 1999397009; 50.08333425953852; 19.994000429788578
-17724609; 83239746; 573730; -549316406; -250244140; -1092529296; -3400000000; 5500000000; 10800000000; 32827642822;1700000000; 600000000; 4200000000; 5008332900; 1999395660; 50.08333425953852; 19.994000429788578
-13916015; 110449218; 3100585; 714111328; -1306152343; -1055908203; -3400000000; 5400000000; 10700000000; 32780429077;1700000000; 600000000; 4300000000; 5008332900; 1999395660; 50.083337059043956; 19.993984601471666
-9619140; 103540039; -15100097; -1818847656; -433349609; 1055908203; -3300000000; 5400000000; 10700000000; 32857043457;1700000000; 600000000; 4300000000; 5008333100; 1999394209; 50.083337059043956; 19.993984601471666
-21728515; 84570312; -10815429; 2221679687; -122070312; -79345703; -3300000000; 5500000000; 10800000000; 32903625488;1700000000; 600000000; 4400000000; 5008333100; 1999394209; 50.08333782739767; 19.993966094843202
-20385742; 88818359; -5419921; 18310546; -1220703125; -262451171; -3300000000; 5600000000; 10800000000; 32948977661;1700000000; 600000000; 4400000000; 5008333289; 1999392820; 50.08333752489415; 19.99395127688764
-14562988; 101977539; 903320; 695800781; 714111328; 1019287109; -3300000000; 5500000000; 10700000000; 32903625488;1700000000; 600000000; 4500000000; 5008333289; 1999392820; 50.08333752489415; 19.99395127688764
14135742; 100598144; -3613281; -3741455078; 1007080078; 18310546; -3400000000; 5500000000; 10700000000; 32827642822;1700000000; 600000000; 4500000000; 5008333330; 1999391310; 50.08333752489415; 19.99395127688764
-16418457; 89270019; -10949707; -2124023437; -769042968; -347900390; -3200000000; 5400000000; 10700000000; 32934936523;1700000000; 600000000; 4600000000; 5008333330; 1999391310; 50.08334278907916; 19.993933727044418
-28100585; 92517089; -6542968; -354003906; -109863281; -42724609; -3200000000; 5300000000; 10700000000; 32887753295;1700000000; 600000000; 4600000000; 5008333409; 1999389949; 50.08334278907916; 19.993933727044418
-14208984; 106079101; -23168945; -1708984375; 311279296; 1373291015; -3200000000; 5400000000; 10700000000; 32934936523;1700000000; 600000000; 4700000000; 5008333409; 1999389949; 50.08334278907916; 19.993933727044418
-8972167; 75402832; -18554687; 2600097656; -439453125; -323486328; -3300000000; 5300000000; 10700000000; 32809188842;1700000000; 600000000; 4700000000; 5008333560; 1999388290; 50.083351254146976; 19.993910849164916
-21691894; 87536621; -12402343; 903320312; -238037109; 311279296; -3200000000; 5400000000; 10700000000; 32934936523;1700000000; 600000000; 4800000000; 5008333560; 1999388290; 50.083351254146976; 19.993910849164916
-15966796; 107836914; 207519; -341796875; -354003906; 12207031; -3200000000; 5400000000; 10700000000; 32934936523;1700000000; 600000000; 4800000000; 5008333640; 1999386579; 50.08334905119911; 19.993895326574147
16894531; 106384277; -18542480; -2514648437; -866699218; -1013183593; -3400000000; 5400000000; 10600000000; 32780429077;1700000000; 600000000; 4900000000; 5008333640; 1999386579; 50.08334905119911; 19.993895326574147
-20458984; 72326660; -7250976; 3308105468; -518798828; -1373291015; -3300000000; 5200000000; 10600000000; 32760015869;1700000000; 600000000; 4900000000; 5008333750; 1999384849; 50.08334905119911; 19.993895326574147
-24279785; 98510742; -4907226; 549316406; -67138671; 140380859; -3400000000; 5100000000; 10500000000; 32630993652;1700000000; 600000000; 5000000000; 5008333750; 1999384849; 50.083353255131016; 19.993881280501984
-3845214; 113598632; 1403808; -2630615234; 225830078; -1049804687; -3400000000; 5100000000; 10500000000; 32630993652;1700000000; 600000000; 5000000000; 5008333920; 1999383289; 50.08335174864498; 19.99385160764499
-4284667; 85302734; -11413574; 970458984; 531005859; 195312500; -3300000000; 5300000000; 10600000000; 32809188842;1700000000; 600000000; 5100000000; 5008333920; 1999383289; 50.08335174864498; 19.99385160764499
-12158203; 91784667; 3247070; -1074218750; 378417968; -1086425781; -3400000000; 5300000000; 10600000000; 32731942749;1700000000; 600000000; 5100000000; 5008334040; 1999381940; 50.08335174864498; 19.99385160764499
-20190429; 100061035; 634765; 390625000; -994873046; -543212890; -3300000000; 5500000000; 10700000000; 32903625488;1700000000; 600000000; 5200000000; 5008334040; 1999381940; 50.08335389036125; 19.993832056740743
-16967773; 106945800; -1110839; 2447509765; -787353515; -366210937; -3300000000; 5400000000; 10700000000; 32857043457;1700000000; 600000000; 5200000000; 5008334079; 1999380750; 50.083355937412485; 19.993816526677882
11328125; 96594238; 10156250; 1629638671; 1135253906; -1977539062; -3400000000; 5100000000; 10500000000; 32709475708;1700000000; 600000000; 5300000000; 5008334079; 1999380750; 50.083355937412485; 19.993816526677882
-29187011; 88110351; -8935546; 2752685546; 1043701171; -36621093; -3100000000; 5200000000; 10600000000; 32919854736;1700000000; 600000000; 5300000000; 5008334090; 1999379549; 50.083355937412485; 19.993816526677882
-1403808; 101525878; -2819824; -1269531250; 1367187500; 1123046875; -3100000000; 5300000000; 10700000000; 32967642211;1700000000; 600000000; 5400000000; 5008334090; 1999379549; 50.083355937412485; 19.993816526677882
-14721679; 94909667; -6066894; -1275634765; 1464843750; 537109375; -3100000000; 5300000000; 10700000000; 32967642211;1700000000; 600000000; 5400000000; 5008334050; 1999378720; 50.083355937412485; 19.993816526677882
-21093750; 92077636; -2929687; -744628906; -2075195312; -946044921; -3000000000; 5200000000; 10700000000; 33001837158;1700000000; 600000000; 5500000000; 5008334050; 1999378720; 50.083355937412485; 19.993816526677882
-21716308; 93811035; -3967285; -48828125; -1507568359; 97656250; -3000000000; 5200000000; 10600000000; 32870693969;1700000000; 600000000; 5500000000; 5008333890; 1999378200; 50.083355937412485; 19.993816526677882
-20678710; 103405761; -6713867; 274658203; 177001953; 579833984; -3500000000; 5400000000; 10700000000; 32705078125;1700000000; 600000000; 5600000000; 5008333890; 1999378200; 50.08335341395532; 19.99379365835508
-13415527; 106567382; -14892578; -366210937; -231933593; -842285156; -3500000000; 5400000000; 10700000000; 32705078125;1700000000; 600000000; 5600000000; 5008333870; 1999377840; 50.08335341395532; 19.99379365835508
-13891601; 96911621; 3686523; 2362060546; -1287841796; 354003906; -3700000000; 5600000000; 10600000000; 32654669189;1700000000; 600000000; 5700000000; 5008333870; 1999377840; 50.08335341395532; 19.99379365835508
-12048339; 93664550; -13171386; 1940917968; -848388671; 97656250; -3700000000; 5800000000; 10700000000; 32746490478;1700000000; 600000000; 5700000000; 5008333890; 1999377770; 50.08335341395532; 19.99379365835508
-10925292; 96081542; -5615234; -451660156; -378417968; 592041015; -3600000000; 6000000000; 10700000000; 32903625488;1700000000; 600000000; 5800000000; 5008333890; 1999377770; 50.08335182511889; 19.99377709058547
-7983398; 98522949; -7617187; -128173828; 280761718; 750732421; -3700000000; 6100000000; 10700000000; 32876077270;1700000000; 600000000; 5800000000; 5008333840; 1999377729; 50.08335182511889; 19.99377709058547
